"success","trial_type","trial_index","time_elapsed","internal_node_id","cwid","Condition","StartTime","EndTime","rt","response","task","question_order","TrialType","SetType","FinStimID","NID","Topic","Vehicle","NumFeatures","Sentence","Aptness","stimulus"
"1","fullscreen","0","2593","0.0-0.0","4287323","B","2024/3/22 12:44:20","2024/3/22 12:47:41",NULL,NULL,NULL,NULL,NULL,NULL,NULL,NULL,NULL,NULL,NULL,NULL,NULL,NULL
NULL,"survey-html-form","1","4947","0.0-1.0","4287323","B","2024/3/22 12:44:20","2024/3/22 12:47:41","2352","Array","instruction_1",NULL,NULL,NULL,NULL,NULL,NULL,NULL,NULL,NULL,NULL,NULL
NULL,"survey-html-form","2","7773","0.0-2.0","4287323","B","2024/3/22 12:44:20","2024/3/22 12:47:41","2824","Array","instruction_2",NULL,NULL,NULL,NULL,NULL,NULL,NULL,NULL,NULL,NULL,NULL
NULL,"survey-html-form","3","11654","0.0-3.0","4287323","B","2024/3/22 12:44:20","2024/3/22 12:47:41","3880","Array","instruction_3",NULL,NULL,NULL,NULL,NULL,NULL,NULL,NULL,NULL,NULL,NULL
NULL,"survey-likert","4","19124","0.0-4.0-0.0","4287323","B","2024/3/22 12:44:20","2024/3/22 12:47:41","7469","Array","aptness_rating","Array","Practice","P","P1","E06","幸福","黄金","3","幸福は大切で、価値があり、輝かしい","2",NULL
NULL,"survey-likert","5","24725","0.0-4.0-1.0","4287323","B","2024/3/22 12:44:20","2024/3/22 12:47:41","5598","Array","aptness_rating","Array","Practice","P","P2","E13","弾丸","亀","1","弾丸は速い","2",NULL
NULL,"survey-likert","6","32151","0.0-4.0-2.0","4287323","B","2024/3/22 12:44:20","2024/3/22 12:47:41","7423","Array","aptness_rating","Array","Practice","P","P3","E48","結婚","冷蔵庫","2","結婚は状態を保存し、冷える","1",NULL
NULL,"survey-likert","7","36206","0.0-4.0-3.0","4287323","B","2024/3/22 12:44:20","2024/3/22 12:47:41","4052","Array","aptness_rating","Array","Practice","P","P4","E04","辞書","顕微鏡","2","辞書は分厚く、四角い","2",NULL
NULL,"survey-html-form","8","116441","0.0-5.0","4287323","B","2024/3/22 12:44:20","2024/3/22 12:47:41","80227","Array","instruction_4",NULL,NULL,NULL,NULL,NULL,NULL,NULL,NULL,NULL,NULL,NULL
NULL,"survey-likert","9","119152","0.0-6.0-0.0","4287323","B","2024/3/22 12:44:20","2024/3/22 12:47:41","2710","Array","aptness_rating","Array","Main","B","17","83","煙突","石碑","1","煙突はまっすぐ立っている","5",NULL
NULL,"survey-likert","10","120295","0.0-6.0-1.0","4287323","B","2024/3/22 12:44:20","2024/3/22 12:47:41","1140","Array","aptness_rating","Array","Main","B","29","110","椿（つばき）","ひとだま","1","椿（つばき）は丸い","4",NULL
NULL,"survey-likert","11","123008","0.0-6.0-2.0","4287323","B","2024/3/22 12:44:20","2024/3/22 12:47:41","2711","Array","aptness_rating","Array","Main","B","25","77","山","王様","1","山は大きい","2",NULL
NULL,"survey-likert","12","124045","0.0-6.0-3.0","4287323","B","2024/3/22 12:44:20","2024/3/22 12:47:41","1034","Array","aptness_rating","Array","Main","B","24","62","微風","吐息","1","微風は優しい","4",NULL
NULL,"survey-likert","13","125083","0.0-6.0-4.0","4287323","B","2024/3/22 12:44:20","2024/3/22 12:47:41","1036","Array","aptness_rating","Array","Main","B","31","112","雑巾","亀","2","雑巾は臭く、汚い","4",NULL
NULL,"survey-likert","14","126282","0.0-6.0-5.0","4287323","B","2024/3/22 12:44:20","2024/3/22 12:47:41","1196","Array","aptness_rating","Array","Main","B","34","17","希望","灯火","2","希望は消えて、明るい","3",NULL
NULL,"survey-likert","15","129060","0.0-6.0-6.0","4287323","B","2024/3/22 12:44:20","2024/3/22 12:47:41","2775","Array","aptness_rating","Array","Main","B","3","39","研究","登山","3","研究は険（けわ）しい道のりで、達成感があり、苦しい","6",NULL
NULL,"survey-likert","16","132265","0.0-6.0-7.0","4287323","B","2024/3/22 12:44:20","2024/3/22 12:47:41","3202","Array","aptness_rating","Array","Main","B","13","12","衝撃","電気","3","衝撃は一瞬の出来事で、突然来て、ビリビリする","7",NULL
NULL,"survey-likert","17","133948","0.0-6.0-8.0","4287323","B","2024/3/22 12:44:20","2024/3/22 12:47:41","1681","Array","aptness_rating","Array","Main","B","21","58","デモ","雪崩（なだれ）","1","デモは止められない","6",NULL
NULL,"survey-likert","18","134777","0.0-6.0-9.0","4287323","B","2024/3/22 12:44:20","2024/3/22 12:47:41","826","Array","aptness_rating","Array","Main","B","38","5","激怒","噴火","2","激怒は突然起こり、勢いが激しい","4",NULL
NULL,"survey-likert","19","136007","0.0-6.0-10.0","4287323","B","2024/3/22 12:44:20","2024/3/22 12:47:41","1228","Array","aptness_rating","Array","Main","B","42","19","心臓","時計","2","心臓は一定のリズムを刻み、正確だ","3",NULL
NULL,"survey-likert","20","137103","0.0-6.0-11.0","4287323","B","2024/3/22 12:44:20","2024/3/22 12:47:41","1093","Array","aptness_rating","Array","Main","B","11","48","雨雲","薄墨","3","雨雲は灰色で、暗く、黒い","5",NULL
NULL,"survey-likert","21","137980","0.0-6.0-12.0","4287323","B","2024/3/22 12:44:20","2024/3/22 12:47:41","874","Array","aptness_rating","Array","Main","B","27","89","愛","季節","1","愛は移り変わる","4",NULL
NULL,"survey-likert","22","140717","0.0-6.0-13.0","4287323","B","2024/3/22 12:44:20","2024/3/22 12:47:41","2735","Array","aptness_rating","Array","Main","B","18","75","空","鏡","1","空は澄（す）んでいる","2",NULL
NULL,"survey-likert","23","141941","0.0-6.0-14.0","4287323","B","2024/3/22 12:44:20","2024/3/22 12:47:41","1221","Array","aptness_rating","Array","Main","B","28","85","利息","年貢","1","利息は払わなければならない","3",NULL
NULL,"survey-likert","24","142858","0.0-6.0-15.0","4287323","B","2024/3/22 12:44:20","2024/3/22 12:47:41","915","Array","aptness_rating","Array","Main","B","39","99","眼","湖","2","眼は美しく、澄（す）んでいる","4",NULL
NULL,"survey-likert","25","144154","0.0-6.0-16.0","4287323","B","2024/3/22 12:44:20","2024/3/22 12:47:41","1294","Array","aptness_rating","Array","Main","B","33","55","理論","建物","2","理論は積み重ねて、組み立てられる","5",NULL
NULL,"survey-likert","26","147331","0.0-6.0-17.0","4287323","B","2024/3/22 12:44:20","2024/3/22 12:47:41","3175","Array","aptness_rating","Array","Main","B","43","119","麦畑","海","2","麦畑は波打ち、広い","3",NULL
NULL,"survey-likert","27","149371","0.0-6.0-18.0","4287323","B","2024/3/22 12:44:20","2024/3/22 12:47:41","2038","Array","aptness_rating","Array","Main","B","12","105","建物","角砂糖","3","建物は脆（もろ）く、四角く、白い","2",NULL
NULL,"survey-likert","28","150265","0.0-6.0-19.0","4287323","B","2024/3/22 12:44:20","2024/3/22 12:47:41","891","Array","aptness_rating","Array","Main","B","16","16","楽譜","暗号","1","楽譜はわからない","4",NULL
NULL,"survey-likert","29","153058","0.0-6.0-20.0","4287323","B","2024/3/22 12:44:20","2024/3/22 12:47:41","2790","Array","aptness_rating","Array","Main","B","35","73","運命","通り魔","2","運命は予測できず、恐ろしい","6",NULL
NULL,"survey-likert","30","153847","0.0-6.0-21.0","4287323","B","2024/3/22 12:44:20","2024/3/22 12:47:41","787","Array","aptness_rating","Array","Main","B","5","63","時間","洪水","3","時間は止められず、流れて、逆らえない","4",NULL
NULL,"survey-likert","31","155408","0.0-6.0-22.0","4287323","B","2024/3/22 12:44:20","2024/3/22 12:47:41","1559","Array","aptness_rating","Array","Main","B","37","59","霧（きり）","ベール","2","霧（きり）は白く、覆う","3",NULL
NULL,"survey-likert","32","157396","0.0-6.0-23.0","4287323","B","2024/3/22 12:44:20","2024/3/22 12:47:41","1985","Array","aptness_rating","Array","Main","B","20","96","柿","ちょうちん","1","柿は丸い","2",NULL
NULL,"survey-likert","33","158201","0.0-6.0-24.0","4287323","B","2024/3/22 12:44:20","2024/3/22 12:47:41","802","Array","aptness_rating","Array","Main","B","22","61","疑惑","腫瘍（しゅよう）","1","疑惑はふくれあがる","4",NULL
NULL,"survey-likert","34","161070","0.0-6.0-25.0","4287323","B","2024/3/22 12:44:20","2024/3/22 12:47:41","2867","Array","aptness_rating","Array","Main","B","40","117","唇（くちびる）","蛭（ひる）","2","唇（くちびる）は気持ち悪く、分厚い","2",NULL
NULL,"survey-likert","35","162632","0.0-6.0-26.0","4287323","B","2024/3/22 12:44:20","2024/3/22 12:47:41","1559","Array","aptness_rating","Array","Main","B","2","81","夕日","銅貨","3","夕日は丸く、輝いていており、赤い","3",NULL
NULL,"survey-likert","36","163356","0.0-6.0-27.0","4287323","B","2024/3/22 12:44:20","2024/3/22 12:47:41","722","Array","aptness_rating","Array","Main","B","4","38","蝶","踊り子","3","蝶は美しく、舞い、華（はな）やかだ","4",NULL
NULL,"survey-likert","37","164330","0.0-6.0-28.0","4287323","B","2024/3/22 12:44:20","2024/3/22 12:47:41","972","Array","aptness_rating","Array","Main","B","23","45","教育","階段","1","教育は段階を踏んでいく","5",NULL
NULL,"survey-likert","38","166946","0.0-6.0-29.0","4287323","B","2024/3/22 12:44:20","2024/3/22 12:47:41","2614","Array","aptness_rating","Array","Main","B","41","2","笑顔","花","2","笑顔は美しく、明るい","6",NULL
NULL,"survey-likert","39","167702","0.0-6.0-30.0","4287323","B","2024/3/22 12:44:20","2024/3/22 12:47:41","753","Array","aptness_rating","Array","Main","B","30","32","審判","天秤","1","審判は公平だ","4",NULL
NULL,"survey-likert","40","168427","0.0-6.0-31.0","4287323","B","2024/3/22 12:44:20","2024/3/22 12:47:41","722","Array","aptness_rating","Array","Main","B","32","20","不安","濃霧（のうむ）","2","不安は先が見えず、晴れない","4",NULL
NULL,"survey-likert","41","170684","0.0-6.0-32.0","4287323","B","2024/3/22 12:44:20","2024/3/22 12:47:41","2255","Array","aptness_rating","Array","Main","B","14","86","学校","工場","3","学校は人がたくさんいて、画一的で、人を生産する","3",NULL
NULL,"survey-likert","42","171388","0.0-6.0-33.0","4287323","B","2024/3/22 12:44:20","2024/3/22 12:47:41","702","Array","aptness_rating","Array","Main","B","6","14","暴動","嵐","3","暴動は激しく、人を巻き込み、突然起こる","4",NULL
NULL,"survey-likert","43","174487","0.0-6.0-34.0","4287323","B","2024/3/22 12:44:20","2024/3/22 12:47:41","3097","Array","aptness_rating","Array","Main","B","45","95","礼儀","檻（おり）","2","礼儀は堅苦しく、縛られる","6",NULL
NULL,"survey-likert","44","175193","0.0-6.0-35.0","4287323","B","2024/3/22 12:44:20","2024/3/22 12:47:41","704","Array","aptness_rating","Array","Main","B","26","52","仕事","牢獄（ろうごく）","1","仕事はつらい","4",NULL
NULL,"survey-likert","45","176561","0.0-6.0-36.0","4287323","B","2024/3/22 12:44:20","2024/3/22 12:47:41","1365","Array","aptness_rating","Array","Main","B","8","80","煙草","時限爆弾","3","煙草は寿命を縮めて、危険で、燃える","3",NULL
NULL,"survey-likert","46","178107","0.0-6.0-37.0","4287323","B","2024/3/22 12:44:20","2024/3/22 12:47:41","1543","Array","aptness_rating","Array","Main","B","15","74","子猫","王女","3","子猫はかわいく、大切にされていおり、わがままだ","3",NULL
NULL,"survey-likert","47","178879","0.0-6.0-38.0","4287323","B","2024/3/22 12:44:20","2024/3/22 12:47:41","770","Array","aptness_rating","Array","Main","B","44","72","香水","花束","2","香水は良い香りがして、華やかだ","4",NULL
NULL,"survey-likert","48","182218","0.0-6.0-39.0","4287323","B","2024/3/22 12:44:20","2024/3/22 12:47:41","3337","Array","aptness_rating","Array","Main","B","7","88","批判","メス","3","批判は人を傷つけて、鋭く、痛いところをつく","1",NULL
NULL,"survey-likert","49","182902","0.0-6.0-40.0","4287323","B","2024/3/22 12:44:20","2024/3/22 12:47:41","681","Array","aptness_rating","Array","Main","B","1","91","皮肉","短刀","3","皮肉は人を傷つけて、鋭く、心に刺さる","4",NULL
NULL,"survey-likert","50","186500","0.0-6.0-41.0","4287323","B","2024/3/22 12:44:20","2024/3/22 12:47:41","3596","Array","aptness_rating","Array","Main","B","19","9","子供","天使","1","子供はかわいい","3",NULL
NULL,"survey-likert","51","187271","0.0-6.0-42.0","4287323","B","2024/3/22 12:44:20","2024/3/22 12:47:41","769","Array","aptness_rating","Array","Main","B","36","33","沈黙","海底","2","沈黙は静かで、暗い","4",NULL
NULL,"survey-likert","52","188277","0.0-6.0-43.0","4287323","B","2024/3/22 12:44:20","2024/3/22 12:47:41","1004","Array","aptness_rating","Array","Main","B","9","26","真珠","水滴","3","真珠は美しく、丸く、透き通っている","3",NULL
NULL,"survey-likert","53","189058","0.0-6.0-44.0","4287323","B","2024/3/22 12:44:20","2024/3/22 12:47:41","778","Array","aptness_rating","Array","Main","B","10","4","つらら","水晶細工","3","つららは美しく、透明で、繊細だ","4",NULL
NULL,"html-keyboard-response","54","201377","0.0-7.0","4287323","B","2024/3/22 12:44:20","2024/3/22 12:47:41","12316"," ","debrief",NULL,NULL,NULL,NULL,NULL,NULL,NULL,NULL,NULL,NULL,"<p style='text-align:left'>これで実験は終了です。お疲れ様でした。</p><p style='text-align:left'>スペースキーを押して次の実験に遷移するのをお待ちください。</p>"
"1","fullscreen","0","22595","0.0-0.0","603644","B","2024/3/22 12:43:28","2024/3/22 12:48:24",NULL,NULL,NULL,NULL,NULL,NULL,NULL,NULL,NULL,NULL,NULL,NULL,NULL,NULL
NULL,"survey-html-form","1","27703","0.0-1.0","603644","B","2024/3/22 12:43:28","2024/3/22 12:48:24","5106","Array","instruction_1",NULL,NULL,NULL,NULL,NULL,NULL,NULL,NULL,NULL,NULL,NULL
NULL,"survey-html-form","2","38768","0.0-2.0","603644","B","2024/3/22 12:43:28","2024/3/22 12:48:24","11065","Array","instruction_2",NULL,NULL,NULL,NULL,NULL,NULL,NULL,NULL,NULL,NULL,NULL
NULL,"survey-html-form","3","42554","0.0-3.0","603644","B","2024/3/22 12:43:28","2024/3/22 12:48:24","3785","Array","instruction_3",NULL,NULL,NULL,NULL,NULL,NULL,NULL,NULL,NULL,NULL,NULL
NULL,"survey-likert","4","50083","0.0-4.0-0.0","603644","B","2024/3/22 12:43:28","2024/3/22 12:48:24","7527","Array","aptness_rating","Array","Practice","P","P1","E06","幸福","黄金","3","幸福は大切で、価値があり、輝かしい","2",NULL
NULL,"survey-likert","5","55337","0.0-4.0-1.0","603644","B","2024/3/22 12:43:28","2024/3/22 12:48:24","5250","Array","aptness_rating","Array","Practice","P","P2","E13","弾丸","亀","1","弾丸は速い","1",NULL
NULL,"survey-likert","6","60293","0.0-4.0-2.0","603644","B","2024/3/22 12:43:28","2024/3/22 12:48:24","4953","Array","aptness_rating","Array","Practice","P","P3","E48","結婚","冷蔵庫","2","結婚は状態を保存し、冷える","2",NULL
NULL,"survey-likert","7","63875","0.0-4.0-3.0","603644","B","2024/3/22 12:43:28","2024/3/22 12:48:24","3579","Array","aptness_rating","Array","Practice","P","P4","E04","辞書","顕微鏡","2","辞書は分厚く、四角い","1",NULL
NULL,"survey-html-form","8","75743","0.0-5.0","603644","B","2024/3/22 12:43:28","2024/3/22 12:48:24","11865","Array","instruction_4",NULL,NULL,NULL,NULL,NULL,NULL,NULL,NULL,NULL,NULL,NULL
NULL,"survey-likert","9","82423","0.0-6.0-0.0","603644","B","2024/3/22 12:43:28","2024/3/22 12:48:24","6679","Array","aptness_rating","Array","Main","B","11","48","雨雲","薄墨","3","雨雲は灰色で、暗く、黒い","6",NULL
NULL,"survey-likert","10","87491","0.0-6.0-1.0","603644","B","2024/3/22 12:43:28","2024/3/22 12:48:24","5065","Array","aptness_rating","Array","Main","B","13","12","衝撃","電気","3","衝撃は一瞬の出来事で、突然来て、ビリビリする","7",NULL
NULL,"survey-likert","11","92183","0.0-6.0-2.0","603644","B","2024/3/22 12:43:28","2024/3/22 12:48:24","4689","Array","aptness_rating","Array","Main","B","22","61","疑惑","腫瘍（しゅよう）","1","疑惑はふくれあがる","3",NULL
NULL,"survey-likert","12","95977","0.0-6.0-3.0","603644","B","2024/3/22 12:43:28","2024/3/22 12:48:24","3791","Array","aptness_rating","Array","Main","B","37","59","霧（きり）","ベール","2","霧（きり）は白く、覆う","5",NULL
NULL,"survey-likert","13","100849","0.0-6.0-4.0","603644","B","2024/3/22 12:43:28","2024/3/22 12:48:24","4869","Array","aptness_rating","Array","Main","B","28","85","利息","年貢","1","利息は払わなければならない","6",NULL
NULL,"survey-likert","14","106653","0.0-6.0-5.0","603644","B","2024/3/22 12:43:28","2024/3/22 12:48:24","5801","Array","aptness_rating","Array","Main","B","40","117","唇（くちびる）","蛭（ひる）","2","唇（くちびる）は気持ち悪く、分厚い","5",NULL
NULL,"survey-likert","15","111211","0.0-6.0-6.0","603644","B","2024/3/22 12:43:28","2024/3/22 12:48:24","4555","Array","aptness_rating","Array","Main","B","21","58","デモ","雪崩（なだれ）","1","デモは止められない","7",NULL
NULL,"survey-likert","16","117065","0.0-6.0-7.0","603644","B","2024/3/22 12:43:28","2024/3/22 12:48:24","5851","Array","aptness_rating","Array","Main","B","34","17","希望","灯火","2","希望は消えて、明るい","6",NULL
NULL,"survey-likert","17","121909","0.0-6.0-8.0","603644","B","2024/3/22 12:43:28","2024/3/22 12:48:24","4841","Array","aptness_rating","Array","Main","B","20","96","柿","ちょうちん","1","柿は丸い","5",NULL
NULL,"survey-likert","18","126511","0.0-6.0-9.0","603644","B","2024/3/22 12:43:28","2024/3/22 12:48:24","4599","Array","aptness_rating","Array","Main","B","6","14","暴動","嵐","3","暴動は激しく、人を巻き込み、突然起こる","7",NULL
NULL,"survey-likert","19","132831","0.0-6.0-10.0","603644","B","2024/3/22 12:43:28","2024/3/22 12:48:24","6317","Array","aptness_rating","Array","Main","B","30","32","審判","天秤","1","審判は公平だ","3",NULL
NULL,"survey-likert","20","138409","0.0-6.0-11.0","603644","B","2024/3/22 12:43:28","2024/3/22 12:48:24","5574","Array","aptness_rating","Array","Main","B","42","19","心臓","時計","2","心臓は一定のリズムを刻み、正確だ","3",NULL
NULL,"survey-likert","21","143221","0.0-6.0-12.0","603644","B","2024/3/22 12:43:28","2024/3/22 12:48:24","4809","Array","aptness_rating","Array","Main","B","18","75","空","鏡","1","空は澄（す）んでいる","3",NULL
NULL,"survey-likert","22","146887","0.0-6.0-13.0","603644","B","2024/3/22 12:43:28","2024/3/22 12:48:24","3663","Array","aptness_rating","Array","Main","B","31","112","雑巾","亀","2","雑巾は臭く、汚い","2",NULL
NULL,"survey-likert","23","150575","0.0-6.0-14.0","603644","B","2024/3/22 12:43:28","2024/3/22 12:48:24","3684","Array","aptness_rating","Array","Main","B","36","33","沈黙","海底","2","沈黙は静かで、暗い","6",NULL
NULL,"survey-likert","24","154490","0.0-6.0-15.0","603644","B","2024/3/22 12:43:28","2024/3/22 12:48:24","3911","Array","aptness_rating","Array","Main","B","39","99","眼","湖","2","眼は美しく、澄（す）んでいる","5",NULL
NULL,"survey-likert","25","157992","0.0-6.0-16.0","603644","B","2024/3/22 12:43:28","2024/3/22 12:48:24","3498","Array","aptness_rating","Array","Main","B","27","89","愛","季節","1","愛は移り変わる","6",NULL
NULL,"survey-likert","26","165779","0.0-6.0-17.0","603644","B","2024/3/22 12:43:28","2024/3/22 12:48:24","7784","Array","aptness_rating","Array","Main","B","2","81","夕日","銅貨","3","夕日は丸く、輝いていており、赤い","4",NULL
NULL,"survey-likert","27","171109","0.0-6.0-18.0","603644","B","2024/3/22 12:43:28","2024/3/22 12:48:24","5327","Array","aptness_rating","Array","Main","B","9","26","真珠","水滴","3","真珠は美しく、丸く、透き通っている","5",NULL
NULL,"survey-likert","28","188930","0.0-6.0-19.0","603644","B","2024/3/22 12:43:28","2024/3/22 12:48:24","17817","Array","aptness_rating","Array","Main","B","25","77","山","王様","1","山は大きい","3",NULL
NULL,"survey-likert","29","193856","0.0-6.0-20.0","603644","B","2024/3/22 12:43:28","2024/3/22 12:48:24","4923","Array","aptness_rating","Array","Main","B","33","55","理論","建物","2","理論は積み重ねて、組み立てられる","5",NULL
NULL,"survey-likert","30","196584","0.0-6.0-21.0","603644","B","2024/3/22 12:43:28","2024/3/22 12:48:24","2724","Array","aptness_rating","Array","Main","B","19","9","子供","天使","1","子供はかわいい","6",NULL
NULL,"survey-likert","31","200992","0.0-6.0-22.0","603644","B","2024/3/22 12:43:28","2024/3/22 12:48:24","4405","Array","aptness_rating","Array","Main","B","15","74","子猫","王女","3","子猫はかわいく、大切にされていおり、わがままだ","3",NULL
NULL,"survey-likert","32","205086","0.0-6.0-23.0","603644","B","2024/3/22 12:43:28","2024/3/22 12:48:24","4091","Array","aptness_rating","Array","Main","B","1","91","皮肉","短刀","3","皮肉は人を傷つけて、鋭く、心に刺さる","5",NULL
NULL,"survey-likert","33","209450","0.0-6.0-24.0","603644","B","2024/3/22 12:43:28","2024/3/22 12:48:24","4361","Array","aptness_rating","Array","Main","B","24","62","微風","吐息","1","微風は優しい","6",NULL
NULL,"survey-likert","34","219720","0.0-6.0-25.0","603644","B","2024/3/22 12:43:28","2024/3/22 12:48:24","10267","Array","aptness_rating","Array","Main","B","17","83","煙突","石碑","1","煙突はまっすぐ立っている","2",NULL
NULL,"survey-likert","35","224420","0.0-6.0-26.0","603644","B","2024/3/22 12:43:28","2024/3/22 12:48:24","4697","Array","aptness_rating","Array","Main","B","7","88","批判","メス","3","批判は人を傷つけて、鋭く、痛いところをつく","5",NULL
NULL,"survey-likert","36","227614","0.0-6.0-27.0","603644","B","2024/3/22 12:43:28","2024/3/22 12:48:24","3191","Array","aptness_rating","Array","Main","B","26","52","仕事","牢獄（ろうごく）","1","仕事はつらい","6",NULL
NULL,"survey-likert","37","232764","0.0-6.0-28.0","603644","B","2024/3/22 12:43:28","2024/3/22 12:48:24","5147","Array","aptness_rating","Array","Main","B","45","95","礼儀","檻（おり）","2","礼儀は堅苦しく、縛られる","2",NULL
NULL,"survey-likert","38","236836","0.0-6.0-29.0","603644","B","2024/3/22 12:43:28","2024/3/22 12:48:24","4069","Array","aptness_rating","Array","Main","B","29","110","椿（つばき）","ひとだま","1","椿（つばき）は丸い","1",NULL
NULL,"survey-likert","39","239842","0.0-6.0-30.0","603644","B","2024/3/22 12:43:28","2024/3/22 12:48:24","3003","Array","aptness_rating","Array","Main","B","35","73","運命","通り魔","2","運命は予測できず、恐ろしい","5",NULL
NULL,"survey-likert","40","243200","0.0-6.0-31.0","603644","B","2024/3/22 12:43:28","2024/3/22 12:48:24","3355","Array","aptness_rating","Array","Main","B","3","39","研究","登山","3","研究は険（けわ）しい道のりで、達成感があり、苦しい","6",NULL
NULL,"survey-likert","41","247586","0.0-6.0-32.0","603644","B","2024/3/22 12:43:28","2024/3/22 12:48:24","4383","Array","aptness_rating","Array","Main","B","43","119","麦畑","海","2","麦畑は波打ち、広い","5",NULL
NULL,"survey-likert","42","251558","0.0-6.0-33.0","603644","B","2024/3/22 12:43:28","2024/3/22 12:48:24","3969","Array","aptness_rating","Array","Main","B","44","72","香水","花束","2","香水は良い香りがして、華やかだ","5",NULL
NULL,"survey-likert","43","254648","0.0-6.0-34.0","603644","B","2024/3/22 12:43:28","2024/3/22 12:48:24","3086","Array","aptness_rating","Array","Main","B","5","63","時間","洪水","3","時間は止められず、流れて、逆らえない","6",NULL
NULL,"survey-likert","44","258584","0.0-6.0-35.0","603644","B","2024/3/22 12:43:28","2024/3/22 12:48:24","3933","Array","aptness_rating","Array","Main","B","16","16","楽譜","暗号","1","楽譜はわからない","6",NULL
NULL,"survey-likert","45","262256","0.0-6.0-36.0","603644","B","2024/3/22 12:43:28","2024/3/22 12:48:24","3669","Array","aptness_rating","Array","Main","B","38","5","激怒","噴火","2","激怒は突然起こり、勢いが激しい","7",NULL
NULL,"survey-likert","46","266552","0.0-6.0-37.0","603644","B","2024/3/22 12:43:28","2024/3/22 12:48:24","4293","Array","aptness_rating","Array","Main","B","14","86","学校","工場","3","学校は人がたくさんいて、画一的で、人を生産する","6",NULL
NULL,"survey-likert","47","269462","0.0-6.0-38.0","603644","B","2024/3/22 12:43:28","2024/3/22 12:48:24","2907","Array","aptness_rating","Array","Main","B","4","38","蝶","踊り子","3","蝶は美しく、舞い、華（はな）やかだ","6",NULL
NULL,"survey-likert","48","272894","0.0-6.0-39.0","603644","B","2024/3/22 12:43:28","2024/3/22 12:48:24","3429","Array","aptness_rating","Array","Main","B","23","45","教育","階段","1","教育は段階を踏んでいく","6",NULL
NULL,"survey-likert","49","276658","0.0-6.0-40.0","603644","B","2024/3/22 12:43:28","2024/3/22 12:48:24","3761","Array","aptness_rating","Array","Main","B","8","80","煙草","時限爆弾","3","煙草は寿命を縮めて、危険で、燃える","5",NULL
NULL,"survey-likert","50","280303","0.0-6.0-41.0","603644","B","2024/3/22 12:43:28","2024/3/22 12:48:24","3641","Array","aptness_rating","Array","Main","B","41","2","笑顔","花","2","笑顔は美しく、明るい","6",NULL
NULL,"survey-likert","51","283660","0.0-6.0-42.0","603644","B","2024/3/22 12:43:28","2024/3/22 12:48:24","3354","Array","aptness_rating","Array","Main","B","12","105","建物","角砂糖","3","建物は脆（もろ）く、四角く、白い","6",NULL
NULL,"survey-likert","52","286816","0.0-6.0-43.0","603644","B","2024/3/22 12:43:28","2024/3/22 12:48:24","3153","Array","aptness_rating","Array","Main","B","32","20","不安","濃霧（のうむ）","2","不安は先が見えず、晴れない","5",NULL
NULL,"survey-likert","53","290258","0.0-6.0-44.0","603644","B","2024/3/22 12:43:28","2024/3/22 12:48:24","3439","Array","aptness_rating","Array","Main","B","10","4","つらら","水晶細工","3","つららは美しく、透明で、繊細だ","5",NULL
NULL,"html-keyboard-response","54","296029","0.0-7.0","603644","B","2024/3/22 12:43:28","2024/3/22 12:48:24","5767"," ","debrief",NULL,NULL,NULL,NULL,NULL,NULL,NULL,NULL,NULL,NULL,"<p style='text-align:left'>これで実験は終了です。お疲れ様でした。</p><p style='text-align:left'>スペースキーを押して次の実験に遷移するのをお待ちください。</p>"
"1","fullscreen","0","2633","0.0-0.0","2613017","A","2024/3/22 12:44:59","2024/3/22 12:50:19",NULL,NULL,NULL,NULL,NULL,NULL,NULL,NULL,NULL,NULL,NULL,NULL,NULL,NULL
NULL,"survey-html-form","1","11925","0.0-1.0","2613017","A","2024/3/22 12:44:59","2024/3/22 12:50:19","9289","Array","instruction_1",NULL,NULL,NULL,NULL,NULL,NULL,NULL,NULL,NULL,NULL,NULL
NULL,"survey-html-form","2","23446","0.0-2.0","2613017","A","2024/3/22 12:44:59","2024/3/22 12:50:19","11519","Array","instruction_2",NULL,NULL,NULL,NULL,NULL,NULL,NULL,NULL,NULL,NULL,NULL
NULL,"survey-html-form","3","29298","0.0-3.0","2613017","A","2024/3/22 12:44:59","2024/3/22 12:50:19","5850","Array","instruction_3",NULL,NULL,NULL,NULL,NULL,NULL,NULL,NULL,NULL,NULL,NULL
NULL,"survey-likert","4","36523","0.0-4.0-0.0","2613017","A","2024/3/22 12:44:59","2024/3/22 12:50:19","7222","Array","aptness_rating","Array","Practice","P","P1","E06","幸福","黄金","3","幸福は大切で、価値があり、輝かしい","2",NULL
NULL,"survey-likert","5","44021","0.0-4.0-1.0","2613017","A","2024/3/22 12:44:59","2024/3/22 12:50:19","7493","Array","aptness_rating","Array","Practice","P","P2","E13","弾丸","亀","1","弾丸は速い","1",NULL
NULL,"survey-likert","6","49767","0.0-4.0-2.0","2613017","A","2024/3/22 12:44:59","2024/3/22 12:50:19","5742","Array","aptness_rating","Array","Practice","P","P3","E48","結婚","冷蔵庫","2","結婚は状態を保存し、冷える","2",NULL
NULL,"survey-likert","7","54022","0.0-4.0-3.0","2613017","A","2024/3/22 12:44:59","2024/3/22 12:50:19","4252","Array","aptness_rating","Array","Practice","P","P4","E04","辞書","顕微鏡","2","辞書は分厚く、四角い","1",NULL
NULL,"survey-html-form","8","92706","0.0-5.0","2613017","A","2024/3/22 12:44:59","2024/3/22 12:50:19","38680","Array","instruction_4",NULL,NULL,NULL,NULL,NULL,NULL,NULL,NULL,NULL,NULL,NULL
NULL,"survey-likert","9","99553","0.0-6.0-0.0","2613017","A","2024/3/22 12:44:59","2024/3/22 12:50:19","6844","Array","aptness_rating","Array","Main","A","9","26","真珠","水滴","1","真珠は美しい","4",NULL
NULL,"survey-likert","10","103201","0.0-6.0-1.0","2613017","A","2024/3/22 12:44:59","2024/3/22 12:50:19","3644","Array","aptness_rating","Array","Main","A","19","9","子供","天使","2","子供はかわいく、無垢だ","7",NULL
NULL,"survey-likert","11","108757","0.0-6.0-2.0","2613017","A","2024/3/22 12:44:59","2024/3/22 12:50:19","5552","Array","aptness_rating","Array","Main","A","23","45","教育","階段","2","教育は段階を踏んでいて、積み重ねる","7",NULL
NULL,"survey-likert","12","114761","0.0-6.0-3.0","2613017","A","2024/3/22 12:44:59","2024/3/22 12:50:19","6000","Array","aptness_rating","Array","Main","A","25","77","山","王様","2","山は大きく、動かない","5",NULL
NULL,"survey-likert","13","120004","0.0-6.0-4.0","2613017","A","2024/3/22 12:44:59","2024/3/22 12:50:19","5240","Array","aptness_rating","Array","Main","A","44","72","香水","花束","3","香水は良い香りがして、華やかで、様々な香りがする","6",NULL
NULL,"survey-likert","14","123035","0.0-6.0-5.0","2613017","A","2024/3/22 12:44:59","2024/3/22 12:50:19","3027","Array","aptness_rating","Array","Main","A","6","14","暴動","嵐","1","暴動は激しい","7",NULL
NULL,"survey-likert","15","126324","0.0-6.0-6.0","2613017","A","2024/3/22 12:44:59","2024/3/22 12:50:19","3286","Array","aptness_rating","Array","Main","A","10","4","つらら","水晶細工","1","つららは美しい","6",NULL
NULL,"survey-likert","16","129326","0.0-6.0-7.0","2613017","A","2024/3/22 12:44:59","2024/3/22 12:50:19","2998","Array","aptness_rating","Array","Main","A","1","91","皮肉","短刀","1","皮肉は人を傷つける","6",NULL
NULL,"survey-likert","17","137143","0.0-6.0-8.0","2613017","A","2024/3/22 12:44:59","2024/3/22 12:50:19","7813","Array","aptness_rating","Array","Main","A","30","32","審判","天秤","2","審判は公平で、平等だ","5",NULL
NULL,"survey-likert","18","140236","0.0-6.0-9.0","2613017","A","2024/3/22 12:44:59","2024/3/22 12:50:19","3090","Array","aptness_rating","Array","Main","A","11","48","雨雲","薄墨","1","雨雲は灰色だ","6",NULL
NULL,"survey-likert","19","144923","0.0-6.0-10.0","2613017","A","2024/3/22 12:44:59","2024/3/22 12:50:19","4683","Array","aptness_rating","Array","Main","A","26","52","仕事","牢獄（ろうごく）","2","仕事はつらいが、逃れられない","7",NULL
NULL,"survey-likert","20","148504","0.0-6.0-11.0","2613017","A","2024/3/22 12:44:59","2024/3/22 12:50:19","3578","Array","aptness_rating","Array","Main","A","21","58","デモ","雪崩（なだれ）","2","デモは止められず、勢いがある","7",NULL
NULL,"survey-likert","21","153190","0.0-6.0-12.0","2613017","A","2024/3/22 12:44:59","2024/3/22 12:50:19","4682","Array","aptness_rating","Array","Main","A","18","75","空","鏡","2","空は澄（す）んでいて、きれいだ","6",NULL
NULL,"survey-likert","22","175669","0.0-6.0-13.0","2613017","A","2024/3/22 12:44:59","2024/3/22 12:50:19","22474","Array","aptness_rating","Array","Main","A","13","12","衝撃","電気","1","衝撃は一瞬の出来事だ","6",NULL
NULL,"survey-likert","23","181708","0.0-6.0-14.0","2613017","A","2024/3/22 12:44:59","2024/3/22 12:50:19","6035","Array","aptness_rating","Array","Main","A","39","99","眼","湖","3","眼は美しく、澄（す）んでいて、光を反射する","5",NULL
NULL,"survey-likert","24","184972","0.0-6.0-15.0","2613017","A","2024/3/22 12:44:59","2024/3/22 12:50:19","3260","Array","aptness_rating","Array","Main","A","17","83","煙突","石碑","2","煙突はまっすぐ立っており、堅い","5",NULL
NULL,"survey-likert","25","190311","0.0-6.0-16.0","2613017","A","2024/3/22 12:44:59","2024/3/22 12:50:19","5335","Array","aptness_rating","Array","Main","A","28","85","利息","年貢","2","利息は払わなければならず、定期的だ","5",NULL
NULL,"survey-likert","26","194222","0.0-6.0-17.0","2613017","A","2024/3/22 12:44:59","2024/3/22 12:50:19","3906","Array","aptness_rating","Array","Main","A","8","80","煙草","時限爆弾","1","煙草は寿命を縮める","7",NULL
NULL,"survey-likert","27","198264","0.0-6.0-18.0","2613017","A","2024/3/22 12:44:59","2024/3/22 12:50:19","4038","Array","aptness_rating","Array","Main","A","37","59","霧（きり）","ベール","3","霧（きり）は白く、覆い、前が見えない","5",NULL
NULL,"survey-likert","28","201502","0.0-6.0-19.0","2613017","A","2024/3/22 12:44:59","2024/3/22 12:50:19","3234","Array","aptness_rating","Array","Main","A","41","2","笑顔","花","3","笑顔は美しく、明るく、華やかだ","6",NULL
NULL,"survey-likert","29","207226","0.0-6.0-20.0","2613017","A","2024/3/22 12:44:59","2024/3/22 12:50:19","5720","Array","aptness_rating","Array","Main","A","24","62","微風","吐息","2","微風は優しく、暖かい","5",NULL
NULL,"survey-likert","30","212522","0.0-6.0-21.0","2613017","A","2024/3/22 12:44:59","2024/3/22 12:50:19","5292","Array","aptness_rating","Array","Main","A","38","5","激怒","噴火","3","激怒は突然起こり、勢いが激しく、止められない","7",NULL
NULL,"survey-likert","31","216984","0.0-6.0-22.0","2613017","A","2024/3/22 12:44:59","2024/3/22 12:50:19","4458","Array","aptness_rating","Array","Main","A","29","110","椿（つばき）","ひとだま","2","椿（つばき）は丸く、赤い","4",NULL
NULL,"survey-likert","32","219880","0.0-6.0-23.0","2613017","A","2024/3/22 12:44:59","2024/3/22 12:50:19","2892","Array","aptness_rating","Array","Main","A","2","81","夕日","銅貨","1","夕日は丸い","5",NULL
NULL,"survey-likert","33","221964","0.0-6.0-24.0","2613017","A","2024/3/22 12:44:59","2024/3/22 12:50:19","2080","Array","aptness_rating","Array","Main","A","15","74","子猫","王女","1","子猫はかわいい","6",NULL
NULL,"survey-likert","34","225298","0.0-6.0-25.0","2613017","A","2024/3/22 12:44:59","2024/3/22 12:50:19","3330","Array","aptness_rating","Array","Main","A","16","16","楽譜","暗号","2","楽譜はわからず、読めない","7",NULL
NULL,"survey-likert","35","229132","0.0-6.0-26.0","2613017","A","2024/3/22 12:44:59","2024/3/22 12:50:19","3831","Array","aptness_rating","Array","Main","A","36","33","沈黙","海底","3","沈黙は静かで、暗く、深い","6",NULL
NULL,"survey-likert","36","233330","0.0-6.0-27.0","2613017","A","2024/3/22 12:44:59","2024/3/22 12:50:19","4195","Array","aptness_rating","Array","Main","A","5","63","時間","洪水","1","時間は止められない","7",NULL
NULL,"survey-likert","37","236958","0.0-6.0-28.0","2613017","A","2024/3/22 12:44:59","2024/3/22 12:50:19","3624","Array","aptness_rating","Array","Main","A","12","105","建物","角砂糖","1","建物は脆（もろ）い","5",NULL
NULL,"survey-likert","38","241100","0.0-6.0-29.0","2613017","A","2024/3/22 12:44:59","2024/3/22 12:50:19","4138","Array","aptness_rating","Array","Main","A","20","96","柿","ちょうちん","2","柿は丸く、赤い","4",NULL
NULL,"survey-likert","39","245470","0.0-6.0-30.0","2613017","A","2024/3/22 12:44:59","2024/3/22 12:50:19","4366","Array","aptness_rating","Array","Main","A","42","19","心臓","時計","3","心臓は一定のリズムを刻み、正確で、いつか止まる","7",NULL
NULL,"survey-likert","40","248702","0.0-6.0-31.0","2613017","A","2024/3/22 12:44:59","2024/3/22 12:50:19","3228","Array","aptness_rating","Array","Main","A","43","119","麦畑","海","3","麦畑は波打ち、広く、風になびく","5",NULL
NULL,"survey-likert","41","253005","0.0-6.0-32.0","2613017","A","2024/3/22 12:44:59","2024/3/22 12:50:19","4299","Array","aptness_rating","Array","Main","A","7","88","批判","メス","1","批判は人を傷つける","3",NULL
NULL,"survey-likert","42","256742","0.0-6.0-33.0","2613017","A","2024/3/22 12:44:59","2024/3/22 12:50:19","3734","Array","aptness_rating","Array","Main","A","4","38","蝶","踊り子","1","蝶は美しい","6",NULL
NULL,"survey-likert","43","262148","0.0-6.0-34.0","2613017","A","2024/3/22 12:44:59","2024/3/22 12:50:19","5402","Array","aptness_rating","Array","Main","A","22","61","疑惑","腫瘍（しゅよう）","2","疑惑はふくれあがり、大きくなる","4",NULL
NULL,"survey-likert","44","267868","0.0-6.0-35.0","2613017","A","2024/3/22 12:44:59","2024/3/22 12:50:19","5716","Array","aptness_rating","Array","Main","A","45","95","礼儀","檻（おり）","3","礼儀は堅苦しく、縛られて、厳しい","5",NULL
NULL,"survey-likert","45","271308","0.0-6.0-36.0","2613017","A","2024/3/22 12:44:59","2024/3/22 12:50:19","3436","Array","aptness_rating","Array","Main","A","27","89","愛","季節","2","愛は移り変わり、繰り返す","6",NULL
NULL,"survey-likert","46","286588","0.0-6.0-37.0","2613017","A","2024/3/22 12:44:59","2024/3/22 12:50:19","15276","Array","aptness_rating","Array","Main","A","34","17","希望","灯火","3","希望は消えて、明るく、温かい","4",NULL
NULL,"survey-likert","47","291080","0.0-6.0-38.0","2613017","A","2024/3/22 12:44:59","2024/3/22 12:50:19","4488","Array","aptness_rating","Array","Main","A","35","73","運命","通り魔","3","運命は予測できず、恐ろしく、突然襲いかかる","5",NULL
NULL,"survey-likert","48","295970","0.0-6.0-39.0","2613017","A","2024/3/22 12:44:59","2024/3/22 12:50:19","4885","Array","aptness_rating","Array","Main","A","40","117","唇（くちびる）","蛭（ひる）","3","唇（くちびる）は気持ち悪く、分厚く、湿っている","5",NULL
NULL,"survey-likert","49","298938","0.0-6.0-40.0","2613017","A","2024/3/22 12:44:59","2024/3/22 12:50:19","2964","Array","aptness_rating","Array","Main","A","3","39","研究","登山","1","研究は険（けわ）しい道のりだ","6",NULL
NULL,"survey-likert","50","305392","0.0-6.0-41.0","2613017","A","2024/3/22 12:44:59","2024/3/22 12:50:19","6450","Array","aptness_rating","Array","Main","A","33","55","理論","建物","3","理論は積み重ねて、組み立てられ、崩れることがある","5",NULL
NULL,"survey-likert","51","307968","0.0-6.0-42.0","2613017","A","2024/3/22 12:44:59","2024/3/22 12:50:19","2572","Array","aptness_rating","Array","Main","A","14","86","学校","工場","1","学校は人がたくさんいる","5",NULL
NULL,"survey-likert","52","312156","0.0-6.0-43.0","2613017","A","2024/3/22 12:44:59","2024/3/22 12:50:19","4184","Array","aptness_rating","Array","Main","A","31","112","雑巾","亀","3","雑巾は臭く、汚く、固い","2",NULL
NULL,"survey-likert","53","316162","0.0-6.0-44.0","2613017","A","2024/3/22 12:44:59","2024/3/22 12:50:19","4002","Array","aptness_rating","Array","Main","A","32","20","不安","濃霧（のうむ）","3","不安は先が見えず、晴れず、暗い","6",NULL
NULL,"html-keyboard-response","54","320486","0.0-7.0","2613017","A","2024/3/22 12:44:59","2024/3/22 12:50:19","4319"," ","debrief",NULL,NULL,NULL,NULL,NULL,NULL,NULL,NULL,NULL,NULL,"<p style='text-align:left'>これで実験は終了です。お疲れ様でした。</p><p style='text-align:left'>スペースキーを押して次の実験に遷移するのをお待ちください。</p>"
"1","fullscreen","0","4878","0.0-0.0","3266322","A","2024/3/22 12:43:05","2024/3/22 12:51:08",NULL,NULL,NULL,NULL,NULL,NULL,NULL,NULL,NULL,NULL,NULL,NULL,NULL,NULL
NULL,"survey-html-form","1","13196","0.0-1.0","3266322","A","2024/3/22 12:43:05","2024/3/22 12:51:08","8312","Array","instruction_1",NULL,NULL,NULL,NULL,NULL,NULL,NULL,NULL,NULL,NULL,NULL
NULL,"survey-html-form","2","32480","0.0-2.0","3266322","A","2024/3/22 12:43:05","2024/3/22 12:51:08","19281","Array","instruction_2",NULL,NULL,NULL,NULL,NULL,NULL,NULL,NULL,NULL,NULL,NULL
NULL,"survey-html-form","3","37541","0.0-3.0","3266322","A","2024/3/22 12:43:05","2024/3/22 12:51:08","5058","Array","instruction_3",NULL,NULL,NULL,NULL,NULL,NULL,NULL,NULL,NULL,NULL,NULL
NULL,"survey-likert","4","45632","0.0-4.0-0.0","3266322","A","2024/3/22 12:43:05","2024/3/22 12:51:08","8084","Array","aptness_rating","Array","Practice","P","P1","E06","幸福","黄金","3","幸福は大切で、価値があり、輝かしい","2",NULL
NULL,"survey-likert","5","48763","0.0-4.0-1.0","3266322","A","2024/3/22 12:43:05","2024/3/22 12:51:08","3117","Array","aptness_rating","Array","Practice","P","P2","E13","弾丸","亀","1","弾丸は速い","1",NULL
NULL,"survey-likert","6","56168","0.0-4.0-2.0","3266322","A","2024/3/22 12:43:05","2024/3/22 12:51:08","7393","Array","aptness_rating","Array","Practice","P","P3","E48","結婚","冷蔵庫","2","結婚は状態を保存し、冷える","2",NULL
NULL,"survey-likert","7","62092","0.0-4.0-3.0","3266322","A","2024/3/22 12:43:05","2024/3/22 12:51:08","5912","Array","aptness_rating","Array","Practice","P","P4","E04","辞書","顕微鏡","2","辞書は分厚く、四角い","1",NULL
NULL,"survey-html-form","8","75110","0.0-5.0","3266322","A","2024/3/22 12:43:05","2024/3/22 12:51:08","13005","Array","instruction_4",NULL,NULL,NULL,NULL,NULL,NULL,NULL,NULL,NULL,NULL,NULL
NULL,"survey-likert","9","79151","0.0-6.0-0.0","3266322","A","2024/3/22 12:43:05","2024/3/22 12:51:08","4038","Array","aptness_rating","Array","Main","A","14","86","学校","工場","1","学校は人がたくさんいる","6",NULL
NULL,"survey-likert","10","85065","0.0-6.0-1.0","3266322","A","2024/3/22 12:43:05","2024/3/22 12:51:08","5901","Array","aptness_rating","Array","Main","A","32","20","不安","濃霧（のうむ）","3","不安は先が見えず、晴れず、暗い","7",NULL
NULL,"survey-likert","11","89613","0.0-6.0-2.0","3266322","A","2024/3/22 12:43:05","2024/3/22 12:51:08","4536","Array","aptness_rating","Array","Main","A","7","88","批判","メス","1","批判は人を傷つける","7",NULL
NULL,"survey-likert","12","97582","0.0-6.0-3.0","3266322","A","2024/3/22 12:43:05","2024/3/22 12:51:08","7958","Array","aptness_rating","Array","Main","A","9","26","真珠","水滴","1","真珠は美しい","5",NULL
NULL,"survey-likert","13","102110","0.0-6.0-4.0","3266322","A","2024/3/22 12:43:05","2024/3/22 12:51:08","4516","Array","aptness_rating","Array","Main","A","12","105","建物","角砂糖","1","建物は脆（もろ）い","6",NULL
NULL,"survey-likert","14","109386","0.0-6.0-5.0","3266322","A","2024/3/22 12:43:05","2024/3/22 12:51:08","7264","Array","aptness_rating","Array","Main","A","23","45","教育","階段","2","教育は段階を踏んでいて、積み重ねる","6",NULL
NULL,"survey-likert","15","116440","0.0-6.0-6.0","3266322","A","2024/3/22 12:43:05","2024/3/22 12:51:08","7045","Array","aptness_rating","Array","Main","A","39","99","眼","湖","3","眼は美しく、澄（す）んでいて、光を反射する","7",NULL
NULL,"survey-likert","16","120622","0.0-6.0-7.0","3266322","A","2024/3/22 12:43:05","2024/3/22 12:51:08","4171","Array","aptness_rating","Array","Main","A","3","39","研究","登山","1","研究は険（けわ）しい道のりだ","6",NULL
NULL,"survey-likert","17","126735","0.0-6.0-8.0","3266322","A","2024/3/22 12:43:05","2024/3/22 12:51:08","6104","Array","aptness_rating","Array","Main","A","21","58","デモ","雪崩（なだれ）","2","デモは止められず、勢いがある","7",NULL
NULL,"survey-likert","18","131974","0.0-6.0-9.0","3266322","A","2024/3/22 12:43:05","2024/3/22 12:51:08","5232","Array","aptness_rating","Array","Main","A","10","4","つらら","水晶細工","1","つららは美しい","6",NULL
NULL,"survey-likert","19","149629","0.0-6.0-10.0","3266322","A","2024/3/22 12:43:05","2024/3/22 12:51:08","17645","Array","aptness_rating","Array","Main","A","33","55","理論","建物","3","理論は積み重ねて、組み立てられ、崩れることがある","6",NULL
NULL,"survey-likert","20","161209","0.0-6.0-11.0","3266322","A","2024/3/22 12:43:05","2024/3/22 12:51:08","11574","Array","aptness_rating","Array","Main","A","29","110","椿（つばき）","ひとだま","2","椿（つばき）は丸く、赤い","4",NULL
NULL,"survey-likert","21","167012","0.0-6.0-12.0","3266322","A","2024/3/22 12:43:05","2024/3/22 12:51:08","5790","Array","aptness_rating","Array","Main","A","17","83","煙突","石碑","2","煙突はまっすぐ立っており、堅い","6",NULL
NULL,"survey-likert","22","172082","0.0-6.0-13.0","3266322","A","2024/3/22 12:43:05","2024/3/22 12:51:08","5059","Array","aptness_rating","Array","Main","A","19","9","子供","天使","2","子供はかわいく、無垢だ","7",NULL
NULL,"survey-likert","23","177710","0.0-6.0-14.0","3266322","A","2024/3/22 12:43:05","2024/3/22 12:51:08","5616","Array","aptness_rating","Array","Main","A","45","95","礼儀","檻（おり）","3","礼儀は堅苦しく、縛られて、厳しい","6",NULL
NULL,"survey-likert","24","183724","0.0-6.0-15.0","3266322","A","2024/3/22 12:43:05","2024/3/22 12:51:08","6009","Array","aptness_rating","Array","Main","A","13","12","衝撃","電気","1","衝撃は一瞬の出来事だ","7",NULL
NULL,"survey-likert","25","191705","0.0-6.0-16.0","3266322","A","2024/3/22 12:43:05","2024/3/22 12:51:08","7976","Array","aptness_rating","Array","Main","A","28","85","利息","年貢","2","利息は払わなければならず、定期的だ","6",NULL
NULL,"survey-likert","26","200596","0.0-6.0-17.0","3266322","A","2024/3/22 12:43:05","2024/3/22 12:51:08","8884","Array","aptness_rating","Array","Main","A","15","74","子猫","王女","1","子猫はかわいい","3",NULL
NULL,"survey-likert","27","204884","0.0-6.0-18.0","3266322","A","2024/3/22 12:43:05","2024/3/22 12:51:08","4277","Array","aptness_rating","Array","Main","A","11","48","雨雲","薄墨","1","雨雲は灰色だ","6",NULL
NULL,"survey-likert","28","211499","0.0-6.0-19.0","3266322","A","2024/3/22 12:43:05","2024/3/22 12:51:08","6603","Array","aptness_rating","Array","Main","A","41","2","笑顔","花","3","笑顔は美しく、明るく、華やかだ","7",NULL
NULL,"survey-likert","29","216178","0.0-6.0-20.0","3266322","A","2024/3/22 12:43:05","2024/3/22 12:51:08","4667","Array","aptness_rating","Array","Main","A","37","59","霧（きり）","ベール","3","霧（きり）は白く、覆い、前が見えない","7",NULL
NULL,"survey-likert","30","228085","0.0-6.0-21.0","3266322","A","2024/3/22 12:43:05","2024/3/22 12:51:08","11896","Array","aptness_rating","Array","Main","A","24","62","微風","吐息","2","微風は優しく、暖かい","5",NULL
NULL,"survey-likert","31","232754","0.0-6.0-22.0","3266322","A","2024/3/22 12:43:05","2024/3/22 12:51:08","4656","Array","aptness_rating","Array","Main","A","8","80","煙草","時限爆弾","1","煙草は寿命を縮める","6",NULL
NULL,"survey-likert","32","236888","0.0-6.0-23.0","3266322","A","2024/3/22 12:43:05","2024/3/22 12:51:08","4122","Array","aptness_rating","Array","Main","A","22","61","疑惑","腫瘍（しゅよう）","2","疑惑はふくれあがり、大きくなる","6",NULL
NULL,"survey-likert","33","240955","0.0-6.0-24.0","3266322","A","2024/3/22 12:43:05","2024/3/22 12:51:08","4057","Array","aptness_rating","Array","Main","A","6","14","暴動","嵐","1","暴動は激しい","7",NULL
NULL,"survey-likert","34","250720","0.0-6.0-25.0","3266322","A","2024/3/22 12:43:05","2024/3/22 12:51:08","9753","Array","aptness_rating","Array","Main","A","16","16","楽譜","暗号","2","楽譜はわからず、読めない","7",NULL
NULL,"survey-likert","35","254584","0.0-6.0-26.0","3266322","A","2024/3/22 12:43:05","2024/3/22 12:51:08","3851","Array","aptness_rating","Array","Main","A","4","38","蝶","踊り子","1","蝶は美しい","6",NULL
NULL,"survey-likert","36","257441","0.0-6.0-27.0","3266322","A","2024/3/22 12:43:05","2024/3/22 12:51:08","2845","Array","aptness_rating","Array","Main","A","36","33","沈黙","海底","3","沈黙は静かで、暗く、深い","7",NULL
NULL,"survey-likert","37","268637","0.0-6.0-28.0","3266322","A","2024/3/22 12:43:05","2024/3/22 12:51:08","11185","Array","aptness_rating","Array","Main","A","42","19","心臓","時計","3","心臓は一定のリズムを刻み、正確で、いつか止まる","7",NULL
NULL,"survey-likert","38","278203","0.0-6.0-29.0","3266322","A","2024/3/22 12:43:05","2024/3/22 12:51:08","9554","Array","aptness_rating","Array","Main","A","30","32","審判","天秤","2","審判は公平で、平等だ","2",NULL
NULL,"survey-likert","39","293043","0.0-6.0-30.0","3266322","A","2024/3/22 12:43:05","2024/3/22 12:51:08","14828","Array","aptness_rating","Array","Main","A","20","96","柿","ちょうちん","2","柿は丸く、赤い","5",NULL
NULL,"survey-likert","40","298279","0.0-6.0-31.0","3266322","A","2024/3/22 12:43:05","2024/3/22 12:51:08","5224","Array","aptness_rating","Array","Main","A","1","91","皮肉","短刀","1","皮肉は人を傷つける","5",NULL
NULL,"survey-likert","41","303133","0.0-6.0-32.0","3266322","A","2024/3/22 12:43:05","2024/3/22 12:51:08","4842","Array","aptness_rating","Array","Main","A","25","77","山","王様","2","山は大きく、動かない","6",NULL
NULL,"survey-likert","42","312803","0.0-6.0-33.0","3266322","A","2024/3/22 12:43:05","2024/3/22 12:51:08","9663","Array","aptness_rating","Array","Main","A","2","81","夕日","銅貨","1","夕日は丸い","5",NULL
NULL,"survey-likert","43","316498","0.0-6.0-34.0","3266322","A","2024/3/22 12:43:05","2024/3/22 12:51:08","3690","Array","aptness_rating","Array","Main","A","26","52","仕事","牢獄（ろうごく）","2","仕事はつらいが、逃れられない","6",NULL
NULL,"survey-likert","44","322939","0.0-6.0-35.0","3266322","A","2024/3/22 12:43:05","2024/3/22 12:51:08","6429","Array","aptness_rating","Array","Main","A","43","119","麦畑","海","3","麦畑は波打ち、広く、風になびく","6",NULL
NULL,"survey-likert","45","340098","0.0-6.0-36.0","3266322","A","2024/3/22 12:43:05","2024/3/22 12:51:08","17148","Array","aptness_rating","Array","Main","A","34","17","希望","灯火","3","希望は消えて、明るく、温かい","6",NULL
NULL,"survey-likert","46","346582","0.0-6.0-37.0","3266322","A","2024/3/22 12:43:05","2024/3/22 12:51:08","6471","Array","aptness_rating","Array","Main","A","5","63","時間","洪水","1","時間は止められない","5",NULL
NULL,"survey-likert","47","355066","0.0-6.0-38.0","3266322","A","2024/3/22 12:43:05","2024/3/22 12:51:08","8476","Array","aptness_rating","Array","Main","A","27","89","愛","季節","2","愛は移り変わり、繰り返す","5",NULL
NULL,"survey-likert","48","360718","0.0-6.0-39.0","3266322","A","2024/3/22 12:43:05","2024/3/22 12:51:08","5640","Array","aptness_rating","Array","Main","A","35","73","運命","通り魔","3","運命は予測できず、恐ろしく、突然襲いかかる","6",NULL
NULL,"survey-likert","49","367919","0.0-6.0-40.0","3266322","A","2024/3/22 12:43:05","2024/3/22 12:51:08","7193","Array","aptness_rating","Array","Main","A","38","5","激怒","噴火","3","激怒は突然起こり、勢いが激しく、止められない","7",NULL
NULL,"survey-likert","50","374168","0.0-6.0-41.0","3266322","A","2024/3/22 12:43:05","2024/3/22 12:51:08","6240","Array","aptness_rating","Array","Main","A","18","75","空","鏡","2","空は澄（す）んでいて、きれいだ","6",NULL
NULL,"survey-likert","51","385224","0.0-6.0-42.0","3266322","A","2024/3/22 12:43:05","2024/3/22 12:51:08","11045","Array","aptness_rating","Array","Main","A","40","117","唇（くちびる）","蛭（ひる）","3","唇（くちびる）は気持ち悪く、分厚く、湿っている","6",NULL
NULL,"survey-likert","52","390248","0.0-6.0-43.0","3266322","A","2024/3/22 12:43:05","2024/3/22 12:51:08","5013","Array","aptness_rating","Array","Main","A","44","72","香水","花束","3","香水は良い香りがして、華やかで、様々な香りがする","6",NULL
NULL,"survey-likert","53","396133","0.0-6.0-44.0","3266322","A","2024/3/22 12:43:05","2024/3/22 12:51:08","5873","Array","aptness_rating","Array","Main","A","31","112","雑巾","亀","3","雑巾は臭く、汚く、固い","2",NULL
NULL,"html-keyboard-response","54","482869","0.0-7.0","3266322","A","2024/3/22 12:43:05","2024/3/22 12:51:08","86721"," ","debrief",NULL,NULL,NULL,NULL,NULL,NULL,NULL,NULL,NULL,NULL,"<p style='text-align:left'>これで実験は終了です。お疲れ様でした。</p><p style='text-align:left'>スペースキーを押して次の実験に遷移するのをお待ちください。</p>"
"1","fullscreen","0","109307","0.0-0.0","1791041","B","2024/3/22 12:45:30","2024/3/22 12:51:22",NULL,NULL,NULL,NULL,NULL,NULL,NULL,NULL,NULL,NULL,NULL,NULL,NULL,NULL
NULL,"survey-html-form","1","115669","0.0-1.0","1791041","B","2024/3/22 12:45:30","2024/3/22 12:51:22","6361","Array","instruction_1",NULL,NULL,NULL,NULL,NULL,NULL,NULL,NULL,NULL,NULL,NULL
NULL,"survey-html-form","2","124208","0.0-2.0","1791041","B","2024/3/22 12:45:30","2024/3/22 12:51:22","8539","Array","instruction_2",NULL,NULL,NULL,NULL,NULL,NULL,NULL,NULL,NULL,NULL,NULL
NULL,"survey-html-form","3","129060","0.0-3.0","1791041","B","2024/3/22 12:45:30","2024/3/22 12:51:22","4851","Array","instruction_3",NULL,NULL,NULL,NULL,NULL,NULL,NULL,NULL,NULL,NULL,NULL
NULL,"survey-likert","4","136884","0.0-4.0-0.0","1791041","B","2024/3/22 12:45:30","2024/3/22 12:51:22","7823","Array","aptness_rating","Array","Practice","P","P1","E06","幸福","黄金","3","幸福は大切で、価値があり、輝かしい","2",NULL
NULL,"survey-likert","5","139786","0.0-4.0-1.0","1791041","B","2024/3/22 12:45:30","2024/3/22 12:51:22","2899","Array","aptness_rating","Array","Practice","P","P2","E13","弾丸","亀","1","弾丸は速い","1",NULL
NULL,"survey-likert","6","146148","0.0-4.0-2.0","1791041","B","2024/3/22 12:45:30","2024/3/22 12:51:22","6360","Array","aptness_rating","Array","Practice","P","P3","E48","結婚","冷蔵庫","2","結婚は状態を保存し、冷える","2",NULL
NULL,"survey-likert","7","154916","0.0-4.0-3.0","1791041","B","2024/3/22 12:45:30","2024/3/22 12:51:22","8766","Array","aptness_rating","Array","Practice","P","P4","E04","辞書","顕微鏡","2","辞書は分厚く、四角い","1",NULL
NULL,"survey-html-form","8","161490","0.0-5.0","1791041","B","2024/3/22 12:45:30","2024/3/22 12:51:22","6572","Array","instruction_4",NULL,NULL,NULL,NULL,NULL,NULL,NULL,NULL,NULL,NULL,NULL
NULL,"survey-likert","9","166706","0.0-6.0-0.0","1791041","B","2024/3/22 12:45:30","2024/3/22 12:51:22","5215","Array","aptness_rating","Array","Main","B","33","55","理論","建物","2","理論は積み重ねて、組み立てられる","7",NULL
NULL,"survey-likert","10","170762","0.0-6.0-1.0","1791041","B","2024/3/22 12:45:30","2024/3/22 12:51:22","4054","Array","aptness_rating","Array","Main","B","21","58","デモ","雪崩（なだれ）","1","デモは止められない","6",NULL
NULL,"survey-likert","11","175114","0.0-6.0-2.0","1791041","B","2024/3/22 12:45:30","2024/3/22 12:51:22","4350","Array","aptness_rating","Array","Main","B","32","20","不安","濃霧（のうむ）","2","不安は先が見えず、晴れない","7",NULL
NULL,"survey-likert","12","180562","0.0-6.0-3.0","1791041","B","2024/3/22 12:45:30","2024/3/22 12:51:22","5446","Array","aptness_rating","Array","Main","B","9","26","真珠","水滴","3","真珠は美しく、丸く、透き通っている","6",NULL
NULL,"survey-likert","13","185058","0.0-6.0-4.0","1791041","B","2024/3/22 12:45:30","2024/3/22 12:51:22","4494","Array","aptness_rating","Array","Main","B","44","72","香水","花束","2","香水は良い香りがして、華やかだ","5",NULL
NULL,"survey-likert","14","189162","0.0-6.0-5.0","1791041","B","2024/3/22 12:45:30","2024/3/22 12:51:22","4102","Array","aptness_rating","Array","Main","B","39","99","眼","湖","2","眼は美しく、澄（す）んでいる","6",NULL
NULL,"survey-likert","15","194917","0.0-6.0-6.0","1791041","B","2024/3/22 12:45:30","2024/3/22 12:51:22","5752","Array","aptness_rating","Array","Main","B","10","4","つらら","水晶細工","3","つららは美しく、透明で、繊細だ","7",NULL
NULL,"survey-likert","16","198826","0.0-6.0-7.0","1791041","B","2024/3/22 12:45:30","2024/3/22 12:51:22","3908","Array","aptness_rating","Array","Main","B","36","33","沈黙","海底","2","沈黙は静かで、暗い","7",NULL
NULL,"survey-likert","17","203050","0.0-6.0-8.0","1791041","B","2024/3/22 12:45:30","2024/3/22 12:51:22","4222","Array","aptness_rating","Array","Main","B","37","59","霧（きり）","ベール","2","霧（きり）は白く、覆う","6",NULL
NULL,"survey-likert","18","207467","0.0-6.0-9.0","1791041","B","2024/3/22 12:45:30","2024/3/22 12:51:22","4414","Array","aptness_rating","Array","Main","B","14","86","学校","工場","3","学校は人がたくさんいて、画一的で、人を生産する","6",NULL
NULL,"survey-likert","19","211860","0.0-6.0-10.0","1791041","B","2024/3/22 12:45:30","2024/3/22 12:51:22","4391","Array","aptness_rating","Array","Main","B","3","39","研究","登山","3","研究は険（けわ）しい道のりで、達成感があり、苦しい","7",NULL
NULL,"survey-likert","20","214826","0.0-6.0-11.0","1791041","B","2024/3/22 12:45:30","2024/3/22 12:51:22","2964","Array","aptness_rating","Array","Main","B","5","63","時間","洪水","3","時間は止められず、流れて、逆らえない","6",NULL
NULL,"survey-likert","21","218784","0.0-6.0-12.0","1791041","B","2024/3/22 12:45:30","2024/3/22 12:51:22","3956","Array","aptness_rating","Array","Main","B","18","75","空","鏡","1","空は澄（す）んでいる","6",NULL
NULL,"survey-likert","22","222440","0.0-6.0-13.0","1791041","B","2024/3/22 12:45:30","2024/3/22 12:51:22","3654","Array","aptness_rating","Array","Main","B","2","81","夕日","銅貨","3","夕日は丸く、輝いていており、赤い","4",NULL
NULL,"survey-likert","23","226258","0.0-6.0-14.0","1791041","B","2024/3/22 12:45:30","2024/3/22 12:51:22","3816","Array","aptness_rating","Array","Main","B","13","12","衝撃","電気","3","衝撃は一瞬の出来事で、突然来て、ビリビリする","6",NULL
NULL,"survey-likert","24","233010","0.0-6.0-15.0","1791041","B","2024/3/22 12:45:30","2024/3/22 12:51:22","6750","Array","aptness_rating","Array","Main","B","17","83","煙突","石碑","1","煙突はまっすぐ立っている","6",NULL
NULL,"survey-likert","25","236106","0.0-6.0-16.0","1791041","B","2024/3/22 12:45:30","2024/3/22 12:51:22","3094","Array","aptness_rating","Array","Main","B","26","52","仕事","牢獄（ろうごく）","1","仕事はつらい","7",NULL
NULL,"survey-likert","26","239849","0.0-6.0-17.0","1791041","B","2024/3/22 12:45:30","2024/3/22 12:51:22","3740","Array","aptness_rating","Array","Main","B","15","74","子猫","王女","3","子猫はかわいく、大切にされていおり、わがままだ","6",NULL
NULL,"survey-likert","27","242294","0.0-6.0-18.0","1791041","B","2024/3/22 12:45:30","2024/3/22 12:51:22","2444","Array","aptness_rating","Array","Main","B","16","16","楽譜","暗号","1","楽譜はわからない","5",NULL
NULL,"survey-likert","28","247673","0.0-6.0-19.0","1791041","B","2024/3/22 12:45:30","2024/3/22 12:51:22","5377","Array","aptness_rating","Array","Main","B","29","110","椿（つばき）","ひとだま","1","椿（つばき）は丸い","5",NULL
NULL,"survey-likert","29","251153","0.0-6.0-20.0","1791041","B","2024/3/22 12:45:30","2024/3/22 12:51:22","3478","Array","aptness_rating","Array","Main","B","6","14","暴動","嵐","3","暴動は激しく、人を巻き込み、突然起こる","6",NULL
NULL,"survey-likert","30","255477","0.0-6.0-21.0","1791041","B","2024/3/22 12:45:30","2024/3/22 12:51:22","4322","Array","aptness_rating","Array","Main","B","20","96","柿","ちょうちん","1","柿は丸い","5",NULL
NULL,"survey-likert","31","258330","0.0-6.0-22.0","1791041","B","2024/3/22 12:45:30","2024/3/22 12:51:22","2852","Array","aptness_rating","Array","Main","B","23","45","教育","階段","1","教育は段階を踏んでいく","6",NULL
NULL,"survey-likert","32","262274","0.0-6.0-23.0","1791041","B","2024/3/22 12:45:30","2024/3/22 12:51:22","3942","Array","aptness_rating","Array","Main","B","24","62","微風","吐息","1","微風は優しい","5",NULL
NULL,"survey-likert","33","267594","0.0-6.0-24.0","1791041","B","2024/3/22 12:45:30","2024/3/22 12:51:22","5319","Array","aptness_rating","Array","Main","B","31","112","雑巾","亀","2","雑巾は臭く、汚い","3",NULL
NULL,"survey-likert","34","271259","0.0-6.0-25.0","1791041","B","2024/3/22 12:45:30","2024/3/22 12:51:22","3663","Array","aptness_rating","Array","Main","B","25","77","山","王様","1","山は大きい","5",NULL
NULL,"survey-likert","35","274555","0.0-6.0-26.0","1791041","B","2024/3/22 12:45:30","2024/3/22 12:51:22","3294","Array","aptness_rating","Array","Main","B","34","17","希望","灯火","2","希望は消えて、明るい","6",NULL
NULL,"survey-likert","36","276955","0.0-6.0-27.0","1791041","B","2024/3/22 12:45:30","2024/3/22 12:51:22","2398","Array","aptness_rating","Array","Main","B","35","73","運命","通り魔","2","運命は予測できず、恐ろしい","5",NULL
NULL,"survey-likert","37","280859","0.0-6.0-28.0","1791041","B","2024/3/22 12:45:30","2024/3/22 12:51:22","3902","Array","aptness_rating","Array","Main","B","45","95","礼儀","檻（おり）","2","礼儀は堅苦しく、縛られる","6",NULL
NULL,"survey-likert","38","283834","0.0-6.0-29.0","1791041","B","2024/3/22 12:45:30","2024/3/22 12:51:22","2974","Array","aptness_rating","Array","Main","B","41","2","笑顔","花","2","笑顔は美しく、明るい","5",NULL
NULL,"survey-likert","39","286907","0.0-6.0-30.0","1791041","B","2024/3/22 12:45:30","2024/3/22 12:51:22","3070","Array","aptness_rating","Array","Main","B","28","85","利息","年貢","1","利息は払わなければならない","6",NULL
NULL,"survey-likert","40","290630","0.0-6.0-31.0","1791041","B","2024/3/22 12:45:30","2024/3/22 12:51:22","3722","Array","aptness_rating","Array","Main","B","40","117","唇（くちびる）","蛭（ひる）","2","唇（くちびる）は気持ち悪く、分厚い","5",NULL
NULL,"survey-likert","41","293608","0.0-6.0-32.0","1791041","B","2024/3/22 12:45:30","2024/3/22 12:51:22","2976","Array","aptness_rating","Array","Main","B","42","19","心臓","時計","2","心臓は一定のリズムを刻み、正確だ","6",NULL
NULL,"survey-likert","42","300987","0.0-6.0-33.0","1791041","B","2024/3/22 12:45:30","2024/3/22 12:51:22","7377","Array","aptness_rating","Array","Main","B","8","80","煙草","時限爆弾","3","煙草は寿命を縮めて、危険で、燃える","5",NULL
NULL,"survey-likert","43","306146","0.0-6.0-34.0","1791041","B","2024/3/22 12:45:30","2024/3/22 12:51:22","5158","Array","aptness_rating","Array","Main","B","12","105","建物","角砂糖","3","建物は脆（もろ）く、四角く、白い","6",NULL
NULL,"survey-likert","44","309704","0.0-6.0-35.0","1791041","B","2024/3/22 12:45:30","2024/3/22 12:51:22","3556","Array","aptness_rating","Array","Main","B","4","38","蝶","踊り子","3","蝶は美しく、舞い、華（はな）やかだ","6",NULL
NULL,"survey-likert","45","312754","0.0-6.0-36.0","1791041","B","2024/3/22 12:45:30","2024/3/22 12:51:22","3048","Array","aptness_rating","Array","Main","B","22","61","疑惑","腫瘍（しゅよう）","1","疑惑はふくれあがる","5",NULL
NULL,"survey-likert","46","315256","0.0-6.0-37.0","1791041","B","2024/3/22 12:45:30","2024/3/22 12:51:22","2500","Array","aptness_rating","Array","Main","B","30","32","審判","天秤","1","審判は公平だ","6",NULL
NULL,"survey-likert","47","319296","0.0-6.0-38.0","1791041","B","2024/3/22 12:45:30","2024/3/22 12:51:22","4038","Array","aptness_rating","Array","Main","B","43","119","麦畑","海","2","麦畑は波打ち、広い","6",NULL
NULL,"survey-likert","48","324952","0.0-6.0-39.0","1791041","B","2024/3/22 12:45:30","2024/3/22 12:51:22","5654","Array","aptness_rating","Array","Main","B","7","88","批判","メス","3","批判は人を傷つけて、鋭く、痛いところをつく","5",NULL
NULL,"survey-likert","49","330424","0.0-6.0-40.0","1791041","B","2024/3/22 12:45:30","2024/3/22 12:51:22","5470","Array","aptness_rating","Array","Main","B","27","89","愛","季節","1","愛は移り変わる","6",NULL
NULL,"survey-likert","50","334434","0.0-6.0-41.0","1791041","B","2024/3/22 12:45:30","2024/3/22 12:51:22","4008","Array","aptness_rating","Array","Main","B","11","48","雨雲","薄墨","3","雨雲は灰色で、暗く、黒い","6",NULL
NULL,"survey-likert","51","339286","0.0-6.0-42.0","1791041","B","2024/3/22 12:45:30","2024/3/22 12:51:22","4850","Array","aptness_rating","Array","Main","B","1","91","皮肉","短刀","3","皮肉は人を傷つけて、鋭く、心に刺さる","7",NULL
NULL,"survey-likert","52","344144","0.0-6.0-43.0","1791041","B","2024/3/22 12:45:30","2024/3/22 12:51:22","4857","Array","aptness_rating","Array","Main","B","38","5","激怒","噴火","2","激怒は突然起こり、勢いが激しい","7",NULL
NULL,"survey-likert","53","348128","0.0-6.0-44.0","1791041","B","2024/3/22 12:45:30","2024/3/22 12:51:22","3982","Array","aptness_rating","Array","Main","B","19","9","子供","天使","1","子供はかわいい","5",NULL
NULL,"html-keyboard-response","54","351928","0.0-7.0","1791041","B","2024/3/22 12:45:30","2024/3/22 12:51:22","3798"," ","debrief",NULL,NULL,NULL,NULL,NULL,NULL,NULL,NULL,NULL,NULL,"<p style='text-align:left'>これで実験は終了です。お疲れ様でした。</p><p style='text-align:left'>スペースキーを押して次の実験に遷移するのをお待ちください。</p>"
"1","fullscreen","0","8639","0.0-0.0","2810580","C","2024/3/22 12:43:58","2024/3/22 12:51:46",NULL,NULL,NULL,NULL,NULL,NULL,NULL,NULL,NULL,NULL,NULL,NULL,NULL,NULL
NULL,"survey-html-form","1","17717","0.0-1.0","2810580","C","2024/3/22 12:43:58","2024/3/22 12:51:46","9074","Array","instruction_1",NULL,NULL,NULL,NULL,NULL,NULL,NULL,NULL,NULL,NULL,NULL
NULL,"survey-html-form","2","36023","0.0-2.0","2810580","C","2024/3/22 12:43:58","2024/3/22 12:51:46","18305","Array","instruction_2",NULL,NULL,NULL,NULL,NULL,NULL,NULL,NULL,NULL,NULL,NULL
NULL,"survey-html-form","3","41475","0.0-3.0","2810580","C","2024/3/22 12:43:58","2024/3/22 12:51:46","5451","Array","instruction_3",NULL,NULL,NULL,NULL,NULL,NULL,NULL,NULL,NULL,NULL,NULL
NULL,"survey-likert","4","68003","0.0-4.0-0.0","2810580","C","2024/3/22 12:43:58","2024/3/22 12:51:46","26527","Array","aptness_rating","Array","Practice","P","P1","E06","幸福","黄金","3","幸福は大切で、価値があり、輝かしい","2",NULL
NULL,"survey-likert","5","75763","0.0-4.0-1.0","2810580","C","2024/3/22 12:43:58","2024/3/22 12:51:46","7757","Array","aptness_rating","Array","Practice","P","P2","E13","弾丸","亀","1","弾丸は速い","1",NULL
NULL,"survey-likert","6","88665","0.0-4.0-2.0","2810580","C","2024/3/22 12:43:58","2024/3/22 12:51:46","12899","Array","aptness_rating","Array","Practice","P","P3","E48","結婚","冷蔵庫","2","結婚は状態を保存し、冷える","2",NULL
NULL,"survey-likert","7","99607","0.0-4.0-3.0","2810580","C","2024/3/22 12:43:58","2024/3/22 12:51:46","10939","Array","aptness_rating","Array","Practice","P","P4","E04","辞書","顕微鏡","2","辞書は分厚く、四角い","1",NULL
NULL,"survey-html-form","8","117549","0.0-5.0","2810580","C","2024/3/22 12:43:58","2024/3/22 12:51:46","17939","Array","instruction_4",NULL,NULL,NULL,NULL,NULL,NULL,NULL,NULL,NULL,NULL,NULL
NULL,"survey-likert","9","126240","0.0-6.0-0.0","2810580","C","2024/3/22 12:43:58","2024/3/22 12:51:46","8690","Array","aptness_rating","Array","Main","C","19","9","子供","天使","3","子供はかわいく、無垢で、いやされる","7",NULL
NULL,"survey-likert","10","140032","0.0-6.0-1.0","2810580","C","2024/3/22 12:43:58","2024/3/22 12:51:46","13788","Array","aptness_rating","Array","Main","C","18","75","空","鏡","3","空は澄（す）んでいて、きれいで、光を映し出す","5",NULL
NULL,"survey-likert","11","147593","0.0-6.0-2.0","2810580","C","2024/3/22 12:43:58","2024/3/22 12:51:46","7559","Array","aptness_rating","Array","Main","C","3","39","研究","登山","2","研究は険（けわ）しい道のりで、達成感がある","7",NULL
NULL,"survey-likert","12","159134","0.0-6.0-3.0","2810580","C","2024/3/22 12:43:58","2024/3/22 12:51:46","11538","Array","aptness_rating","Array","Main","C","4","38","蝶","踊り子","2","蝶は美しく、舞う","6",NULL
NULL,"survey-likert","13","166319","0.0-6.0-4.0","2810580","C","2024/3/22 12:43:58","2024/3/22 12:51:46","7182","Array","aptness_rating","Array","Main","C","33","55","理論","建物","1","理論は積み重ねられる","6",NULL
NULL,"survey-likert","14","171871","0.0-6.0-5.0","2810580","C","2024/3/22 12:43:58","2024/3/22 12:51:46","5549","Array","aptness_rating","Array","Main","C","31","112","雑巾","亀","1","雑巾は臭い","1",NULL
NULL,"survey-likert","15","177197","0.0-6.0-6.0","2810580","C","2024/3/22 12:43:58","2024/3/22 12:51:46","5323","Array","aptness_rating","Array","Main","C","32","20","不安","濃霧（のうむ）","1","不安は先が見えない","7",NULL
NULL,"survey-likert","16","189747","0.0-6.0-7.0","2810580","C","2024/3/22 12:43:58","2024/3/22 12:51:46","12547","Array","aptness_rating","Array","Main","C","43","119","麦畑","海","1","麦畑は波打つ","2",NULL
NULL,"survey-likert","17","199314","0.0-6.0-8.0","2810580","C","2024/3/22 12:43:58","2024/3/22 12:51:46","9564","Array","aptness_rating","Array","Main","C","39","99","眼","湖","1","眼は美しい","2",NULL
NULL,"survey-likert","18","205242","0.0-6.0-9.0","2810580","C","2024/3/22 12:43:58","2024/3/22 12:51:46","5926","Array","aptness_rating","Array","Main","C","21","58","デモ","雪崩（なだれ）","3","デモは止められず、勢いがあり、人を巻き込む","7",NULL
NULL,"survey-likert","19","213787","0.0-6.0-10.0","2810580","C","2024/3/22 12:43:58","2024/3/22 12:51:46","8542","Array","aptness_rating","Array","Main","C","11","48","雨雲","薄墨","2","雨雲は灰色で、暗い","6",NULL
NULL,"survey-likert","20","219435","0.0-6.0-11.0","2810580","C","2024/3/22 12:43:58","2024/3/22 12:51:46","5645","Array","aptness_rating","Array","Main","C","23","45","教育","階段","3","教育は段階を踏んでいて、積み重ねて、一歩ずつ進む","7",NULL
NULL,"survey-likert","21","229557","0.0-6.0-12.0","2810580","C","2024/3/22 12:43:58","2024/3/22 12:51:46","10119","Array","aptness_rating","Array","Main","C","16","16","楽譜","暗号","3","楽譜はわからず、読めず、難しい","5",NULL
NULL,"survey-likert","22","234610","0.0-6.0-13.0","2810580","C","2024/3/22 12:43:58","2024/3/22 12:51:46","5050","Array","aptness_rating","Array","Main","C","27","89","愛","季節","3","愛は移り変わり、繰り返し、激しい","6",NULL
NULL,"survey-likert","23","241338","0.0-6.0-14.0","2810580","C","2024/3/22 12:43:58","2024/3/22 12:51:46","6726","Array","aptness_rating","Array","Main","C","42","19","心臓","時計","1","心臓は一定のリズムを刻む","5",NULL
NULL,"survey-likert","24","248074","0.0-6.0-15.0","2810580","C","2024/3/22 12:43:58","2024/3/22 12:51:46","6731","Array","aptness_rating","Array","Main","C","15","74","子猫","王女","2","子猫はかわいく、大切にされている","3",NULL
NULL,"survey-likert","25","253630","0.0-6.0-16.0","2810580","C","2024/3/22 12:43:58","2024/3/22 12:51:46","5554","Array","aptness_rating","Array","Main","C","34","17","希望","灯火","1","希望は消える","7",NULL
NULL,"survey-likert","26","260358","0.0-6.0-17.0","2810580","C","2024/3/22 12:43:58","2024/3/22 12:51:46","6725","Array","aptness_rating","Array","Main","C","26","52","仕事","牢獄（ろうごく）","3","仕事はつらいが、逃れられず、閉じ込められる","6",NULL
NULL,"survey-likert","27","268762","0.0-6.0-18.0","2810580","C","2024/3/22 12:43:58","2024/3/22 12:51:46","8401","Array","aptness_rating","Array","Main","C","5","63","時間","洪水","2","時間は止められず、流れる","3",NULL
NULL,"survey-likert","28","277242","0.0-6.0-19.0","2810580","C","2024/3/22 12:43:58","2024/3/22 12:51:46","8477","Array","aptness_rating","Array","Main","C","29","110","椿（つばき）","ひとだま","3","椿（つばき）は丸く、赤く、はかない","2",NULL
NULL,"survey-likert","29","285131","0.0-6.0-20.0","2810580","C","2024/3/22 12:43:58","2024/3/22 12:51:46","7886","Array","aptness_rating","Array","Main","C","1","91","皮肉","短刀","2","皮肉は人を傷つけて、鋭い","5",NULL
NULL,"survey-likert","30","291332","0.0-6.0-21.0","2810580","C","2024/3/22 12:43:58","2024/3/22 12:51:46","6198","Array","aptness_rating","Array","Main","C","30","32","審判","天秤","3","審判は公平で、平等で、判断される","7",NULL
NULL,"survey-likert","31","298990","0.0-6.0-22.0","2810580","C","2024/3/22 12:43:58","2024/3/22 12:51:46","7655","Array","aptness_rating","Array","Main","C","17","83","煙突","石碑","3","煙突はまっすぐ立っており、堅く、灰色だ","2",NULL
NULL,"survey-likert","32","311540","0.0-6.0-23.0","2810580","C","2024/3/22 12:43:58","2024/3/22 12:51:46","12548","Array","aptness_rating","Array","Main","C","28","85","利息","年貢","3","利息は払わなければならず、定期的で、重い","6",NULL
NULL,"survey-likert","33","320039","0.0-6.0-24.0","2810580","C","2024/3/22 12:43:58","2024/3/22 12:51:46","8496","Array","aptness_rating","Array","Main","C","35","73","運命","通り魔","1","運命は予測できない","2",NULL
NULL,"survey-likert","34","328401","0.0-6.0-25.0","2810580","C","2024/3/22 12:43:58","2024/3/22 12:51:46","8360","Array","aptness_rating","Array","Main","C","12","105","建物","角砂糖","2","建物は脆（もろ）く、四角い","6",NULL
NULL,"survey-likert","35","332395","0.0-6.0-26.0","2810580","C","2024/3/22 12:43:58","2024/3/22 12:51:46","3991","Array","aptness_rating","Array","Main","C","41","2","笑顔","花","1","笑顔は美しい","7",NULL
NULL,"survey-likert","36","339313","0.0-6.0-27.0","2810580","C","2024/3/22 12:43:58","2024/3/22 12:51:46","6915","Array","aptness_rating","Array","Main","C","13","12","衝撃","電気","2","衝撃は一瞬の出来事で、突然来る","3",NULL
NULL,"survey-likert","37","346173","0.0-6.0-28.0","2810580","C","2024/3/22 12:43:58","2024/3/22 12:51:46","6857","Array","aptness_rating","Array","Main","C","9","26","真珠","水滴","2","真珠は美しく、丸い","3",NULL
NULL,"survey-likert","38","352525","0.0-6.0-29.0","2810580","C","2024/3/22 12:43:58","2024/3/22 12:51:46","6350","Array","aptness_rating","Array","Main","C","36","33","沈黙","海底","1","沈黙は静かだ","7",NULL
NULL,"survey-likert","39","358487","0.0-6.0-30.0","2810580","C","2024/3/22 12:43:58","2024/3/22 12:51:46","5959","Array","aptness_rating","Array","Main","C","2","81","夕日","銅貨","2","夕日は丸く、輝いている","1",NULL
NULL,"survey-likert","40","365899","0.0-6.0-31.0","2810580","C","2024/3/22 12:43:58","2024/3/22 12:51:46","7410","Array","aptness_rating","Array","Main","C","40","117","唇（くちびる）","蛭（ひる）","1","唇（くちびる）は気持ち悪い","1",NULL
NULL,"survey-likert","41","374701","0.0-6.0-32.0","2810580","C","2024/3/22 12:43:58","2024/3/22 12:51:46","8799","Array","aptness_rating","Array","Main","C","8","80","煙草","時限爆弾","2","煙草は寿命を縮めて、危険だ","6",NULL
NULL,"survey-likert","42","383223","0.0-6.0-33.0","2810580","C","2024/3/22 12:43:58","2024/3/22 12:51:46","8519","Array","aptness_rating","Array","Main","C","45","95","礼儀","檻（おり）","1","礼儀は堅苦しい","3",NULL
NULL,"survey-likert","43","390121","0.0-6.0-34.0","2810580","C","2024/3/22 12:43:58","2024/3/22 12:51:46","6895","Array","aptness_rating","Array","Main","C","20","96","柿","ちょうちん","3","柿は丸く、赤く、ぶら下がっている","2",NULL
NULL,"survey-likert","44","396248","0.0-6.0-35.0","2810580","C","2024/3/22 12:43:58","2024/3/22 12:51:46","6124","Array","aptness_rating","Array","Main","C","6","14","暴動","嵐","2","暴動は激しく、人を巻き込む","6",NULL
NULL,"survey-likert","45","404469","0.0-6.0-36.0","2810580","C","2024/3/22 12:43:58","2024/3/22 12:51:46","8217","Array","aptness_rating","Array","Main","C","22","61","疑惑","腫瘍（しゅよう）","3","疑惑はふくれあがり、大きくなり、厄介だ","6",NULL
NULL,"survey-likert","46","414418","0.0-6.0-37.0","2810580","C","2024/3/22 12:43:58","2024/3/22 12:51:46","9945","Array","aptness_rating","Array","Main","C","37","59","霧（きり）","ベール","1","霧（きり）は白い","2",NULL
NULL,"survey-likert","47","422615","0.0-6.0-38.0","2810580","C","2024/3/22 12:43:58","2024/3/22 12:51:46","8194","Array","aptness_rating","Array","Main","C","10","4","つらら","水晶細工","2","つららは美しく、透明だ","5",NULL
NULL,"survey-likert","48","432024","0.0-6.0-39.0","2810580","C","2024/3/22 12:43:58","2024/3/22 12:51:46","9407","Array","aptness_rating","Array","Main","C","14","86","学校","工場","2","学校は人がたくさんいて、画一的だ","2",NULL
NULL,"survey-likert","49","440079","0.0-6.0-40.0","2810580","C","2024/3/22 12:43:58","2024/3/22 12:51:46","8052","Array","aptness_rating","Array","Main","C","24","62","微風","吐息","3","微風は優しく、暖かく、弱い","3",NULL
NULL,"survey-likert","50","444275","0.0-6.0-41.0","2810580","C","2024/3/22 12:43:58","2024/3/22 12:51:46","4193","Array","aptness_rating","Array","Main","C","44","72","香水","花束","1","香水は良い香りがする","5",NULL
NULL,"survey-likert","51","451240","0.0-6.0-42.0","2810580","C","2024/3/22 12:43:58","2024/3/22 12:51:46","6963","Array","aptness_rating","Array","Main","C","7","88","批判","メス","2","批判は人を傷つけて、鋭い","2",NULL
NULL,"survey-likert","52","455846","0.0-6.0-43.0","2810580","C","2024/3/22 12:43:58","2024/3/22 12:51:46","4603","Array","aptness_rating","Array","Main","C","38","5","激怒","噴火","1","激怒は突然起こる","7",NULL
NULL,"survey-likert","53","464415","0.0-6.0-44.0","2810580","C","2024/3/22 12:43:58","2024/3/22 12:51:46","8566","Array","aptness_rating","Array","Main","C","25","77","山","王様","3","山は大きく、動かず、威厳がある","5",NULL
NULL,"html-keyboard-response","54","467806","0.0-7.0","2810580","C","2024/3/22 12:43:58","2024/3/22 12:51:46","3387"," ","debrief",NULL,NULL,NULL,NULL,NULL,NULL,NULL,NULL,NULL,NULL,"<p style='text-align:left'>これで実験は終了です。お疲れ様でした。</p><p style='text-align:left'>スペースキーを押して次の実験に遷移するのをお待ちください。</p>"
"1","fullscreen","0","3357","0.0-0.0","1822057","A","2024/3/22 12:46:57","2024/3/22 12:52:13",NULL,NULL,NULL,NULL,NULL,NULL,NULL,NULL,NULL,NULL,NULL,NULL,NULL,NULL
NULL,"survey-html-form","1","14925","0.0-1.0","1822057","A","2024/3/22 12:46:57","2024/3/22 12:52:13","11553","Array","instruction_1",NULL,NULL,NULL,NULL,NULL,NULL,NULL,NULL,NULL,NULL,NULL
NULL,"survey-html-form","2","37907","0.0-2.0","1822057","A","2024/3/22 12:46:57","2024/3/22 12:52:13","22978","Array","instruction_2",NULL,NULL,NULL,NULL,NULL,NULL,NULL,NULL,NULL,NULL,NULL
NULL,"survey-html-form","3","46686","0.0-3.0","1822057","A","2024/3/22 12:46:57","2024/3/22 12:52:13","8775","Array","instruction_3",NULL,NULL,NULL,NULL,NULL,NULL,NULL,NULL,NULL,NULL,NULL
NULL,"survey-likert","4","55424","0.0-4.0-0.0","1822057","A","2024/3/22 12:46:57","2024/3/22 12:52:13","8730","Array","aptness_rating","Array","Practice","P","P1","E06","幸福","黄金","3","幸福は大切で、価値があり、輝かしい","2",NULL
NULL,"survey-likert","5","58651","0.0-4.0-1.0","1822057","A","2024/3/22 12:46:57","2024/3/22 12:52:13","3215","Array","aptness_rating","Array","Practice","P","P2","E13","弾丸","亀","1","弾丸は速い","1",NULL
NULL,"survey-likert","6","65705","0.0-4.0-2.0","1822057","A","2024/3/22 12:46:57","2024/3/22 12:52:13","7033","Array","aptness_rating","Array","Practice","P","P3","E48","結婚","冷蔵庫","2","結婚は状態を保存し、冷える","2",NULL
NULL,"survey-likert","7","72937","0.0-4.0-3.0","1822057","A","2024/3/22 12:46:57","2024/3/22 12:52:13","7210","Array","aptness_rating","Array","Practice","P","P4","E04","辞書","顕微鏡","2","辞書は分厚く、四角い","1",NULL
NULL,"survey-html-form","8","86120","0.0-5.0","1822057","A","2024/3/22 12:46:57","2024/3/22 12:52:13","13171","Array","instruction_4",NULL,NULL,NULL,NULL,NULL,NULL,NULL,NULL,NULL,NULL,NULL
NULL,"survey-likert","9","92370","0.0-6.0-0.0","1822057","A","2024/3/22 12:46:57","2024/3/22 12:52:13","6245","Array","aptness_rating","Array","Main","A","41","2","笑顔","花","3","笑顔は美しく、明るく、華やかだ","7",NULL
NULL,"survey-likert","10","99341","0.0-6.0-1.0","1822057","A","2024/3/22 12:46:57","2024/3/22 12:52:13","6957","Array","aptness_rating","Array","Main","A","44","72","香水","花束","3","香水は良い香りがして、華やかで、様々な香りがする","7",NULL
NULL,"survey-likert","11","108810","0.0-6.0-2.0","1822057","A","2024/3/22 12:46:57","2024/3/22 12:52:13","9444","Array","aptness_rating","Array","Main","A","29","110","椿（つばき）","ひとだま","2","椿（つばき）は丸く、赤い","5",NULL
NULL,"survey-likert","12","112277","0.0-6.0-3.0","1822057","A","2024/3/22 12:46:57","2024/3/22 12:52:13","3455","Array","aptness_rating","Array","Main","A","10","4","つらら","水晶細工","1","つららは美しい","7",NULL
NULL,"survey-likert","13","117063","0.0-6.0-4.0","1822057","A","2024/3/22 12:46:57","2024/3/22 12:52:13","4774","Array","aptness_rating","Array","Main","A","25","77","山","王様","2","山は大きく、動かない","5",NULL
NULL,"survey-likert","14","123578","0.0-6.0-5.0","1822057","A","2024/3/22 12:46:57","2024/3/22 12:52:13","6504","Array","aptness_rating","Array","Main","A","14","86","学校","工場","1","学校は人がたくさんいる","3",NULL
NULL,"survey-likert","15","126855","0.0-6.0-6.0","1822057","A","2024/3/22 12:46:57","2024/3/22 12:52:13","3265","Array","aptness_rating","Array","Main","A","3","39","研究","登山","1","研究は険（けわ）しい道のりだ","7",NULL
NULL,"survey-likert","16","129416","0.0-6.0-7.0","1822057","A","2024/3/22 12:46:57","2024/3/22 12:52:13","2548","Array","aptness_rating","Array","Main","A","6","14","暴動","嵐","1","暴動は激しい","7",NULL
NULL,"survey-likert","17","134922","0.0-6.0-8.0","1822057","A","2024/3/22 12:46:57","2024/3/22 12:52:13","5494","Array","aptness_rating","Array","Main","A","13","12","衝撃","電気","1","衝撃は一瞬の出来事だ","5",NULL
NULL,"survey-likert","18","142141","0.0-6.0-9.0","1822057","A","2024/3/22 12:46:57","2024/3/22 12:52:13","7204","Array","aptness_rating","Array","Main","A","23","45","教育","階段","2","教育は段階を踏んでいて、積み重ねる","6",NULL
NULL,"survey-likert","19","145553","0.0-6.0-10.0","1822057","A","2024/3/22 12:46:57","2024/3/22 12:52:13","3384","Array","aptness_rating","Array","Main","A","5","63","時間","洪水","1","時間は止められない","6",NULL
NULL,"survey-likert","20","149979","0.0-6.0-11.0","1822057","A","2024/3/22 12:46:57","2024/3/22 12:52:13","4404","Array","aptness_rating","Array","Main","A","15","74","子猫","王女","1","子猫はかわいい","3",NULL
NULL,"survey-likert","21","155477","0.0-6.0-12.0","1822057","A","2024/3/22 12:46:57","2024/3/22 12:52:13","5486","Array","aptness_rating","Array","Main","A","37","59","霧（きり）","ベール","3","霧（きり）は白く、覆い、前が見えない","6",NULL
NULL,"survey-likert","22","158931","0.0-6.0-13.0","1822057","A","2024/3/22 12:46:57","2024/3/22 12:52:13","3441","Array","aptness_rating","Array","Main","A","9","26","真珠","水滴","1","真珠は美しい","1",NULL
NULL,"survey-likert","23","163060","0.0-6.0-14.0","1822057","A","2024/3/22 12:46:57","2024/3/22 12:52:13","4118","Array","aptness_rating","Array","Main","A","20","96","柿","ちょうちん","2","柿は丸く、赤い","5",NULL
NULL,"survey-likert","24","168834","0.0-6.0-15.0","1822057","A","2024/3/22 12:46:57","2024/3/22 12:52:13","5763","Array","aptness_rating","Array","Main","A","11","48","雨雲","薄墨","1","雨雲は灰色だ","6",NULL
NULL,"survey-likert","25","174759","0.0-6.0-16.0","1822057","A","2024/3/22 12:46:57","2024/3/22 12:52:13","5912","Array","aptness_rating","Array","Main","A","33","55","理論","建物","3","理論は積み重ねて、組み立てられ、崩れることがある","3",NULL
NULL,"survey-likert","26","178809","0.0-6.0-17.0","1822057","A","2024/3/22 12:46:57","2024/3/22 12:52:13","4038","Array","aptness_rating","Array","Main","A","38","5","激怒","噴火","3","激怒は突然起こり、勢いが激しく、止められない","7",NULL
NULL,"survey-likert","27","182387","0.0-6.0-18.0","1822057","A","2024/3/22 12:46:57","2024/3/22 12:52:13","3567","Array","aptness_rating","Array","Main","A","1","91","皮肉","短刀","1","皮肉は人を傷つける","6",NULL
NULL,"survey-likert","28","187143","0.0-6.0-19.0","1822057","A","2024/3/22 12:46:57","2024/3/22 12:52:13","4744","Array","aptness_rating","Array","Main","A","43","119","麦畑","海","3","麦畑は波打ち、広く、風になびく","6",NULL
NULL,"survey-likert","29","191334","0.0-6.0-20.0","1822057","A","2024/3/22 12:46:57","2024/3/22 12:52:13","4171","Array","aptness_rating","Array","Main","A","26","52","仕事","牢獄（ろうごく）","2","仕事はつらいが、逃れられない","7",NULL
NULL,"survey-likert","30","199460","0.0-6.0-21.0","1822057","A","2024/3/22 12:46:57","2024/3/22 12:52:13","8113","Array","aptness_rating","Array","Main","A","32","20","不安","濃霧（のうむ）","3","不安は先が見えず、晴れず、暗い","6",NULL
NULL,"survey-likert","31","204671","0.0-6.0-22.0","1822057","A","2024/3/22 12:46:57","2024/3/22 12:52:13","5198","Array","aptness_rating","Array","Main","A","35","73","運命","通り魔","3","運命は予測できず、恐ろしく、突然襲いかかる","6",NULL
NULL,"survey-likert","32","209465","0.0-6.0-23.0","1822057","A","2024/3/22 12:46:57","2024/3/22 12:52:13","4775","Array","aptness_rating","Array","Main","A","22","61","疑惑","腫瘍（しゅよう）","2","疑惑はふくれあがり、大きくなる","6",NULL
NULL,"survey-likert","33","215454","0.0-6.0-24.0","1822057","A","2024/3/22 12:46:57","2024/3/22 12:52:13","5977","Array","aptness_rating","Array","Main","A","39","99","眼","湖","3","眼は美しく、澄（す）んでいて、光を反射する","6",NULL
NULL,"survey-likert","34","221728","0.0-6.0-25.0","1822057","A","2024/3/22 12:46:57","2024/3/22 12:52:13","6261","Array","aptness_rating","Array","Main","A","30","32","審判","天秤","2","審判は公平で、平等だ","2",NULL
NULL,"survey-likert","35","227597","0.0-6.0-26.0","1822057","A","2024/3/22 12:46:57","2024/3/22 12:52:13","5857","Array","aptness_rating","Array","Main","A","17","83","煙突","石碑","2","煙突はまっすぐ立っており、堅い","4",NULL
NULL,"survey-likert","36","232727","0.0-6.0-27.0","1822057","A","2024/3/22 12:46:57","2024/3/22 12:52:13","5117","Array","aptness_rating","Array","Main","A","28","85","利息","年貢","2","利息は払わなければならず、定期的だ","6",NULL
NULL,"survey-likert","37","235301","0.0-6.0-28.0","1822057","A","2024/3/22 12:46:57","2024/3/22 12:52:13","2562","Array","aptness_rating","Array","Main","A","19","9","子供","天使","2","子供はかわいく、無垢だ","7",NULL
NULL,"survey-likert","38","237547","0.0-6.0-29.0","1822057","A","2024/3/22 12:46:57","2024/3/22 12:52:13","2233","Array","aptness_rating","Array","Main","A","4","38","蝶","踊り子","1","蝶は美しい","6",NULL
NULL,"survey-likert","39","240809","0.0-6.0-30.0","1822057","A","2024/3/22 12:46:57","2024/3/22 12:52:13","3242","Array","aptness_rating","Array","Main","A","7","88","批判","メス","1","批判は人を傷つける","7",NULL
NULL,"survey-likert","40","245677","0.0-6.0-31.0","1822057","A","2024/3/22 12:46:57","2024/3/22 12:52:13","4855","Array","aptness_rating","Array","Main","A","31","112","雑巾","亀","3","雑巾は臭く、汚く、固い","1",NULL
NULL,"survey-likert","41","250593","0.0-6.0-32.0","1822057","A","2024/3/22 12:46:57","2024/3/22 12:52:13","4903","Array","aptness_rating","Array","Main","A","2","81","夕日","銅貨","1","夕日は丸い","5",NULL
NULL,"survey-likert","42","255800","0.0-6.0-33.0","1822057","A","2024/3/22 12:46:57","2024/3/22 12:52:13","5195","Array","aptness_rating","Array","Main","A","42","19","心臓","時計","3","心臓は一定のリズムを刻み、正確で、いつか止まる","7",NULL
NULL,"survey-likert","43","263072","0.0-6.0-34.0","1822057","A","2024/3/22 12:46:57","2024/3/22 12:52:13","7259","Array","aptness_rating","Array","Main","A","34","17","希望","灯火","3","希望は消えて、明るく、温かい","7",NULL
NULL,"survey-likert","44","267745","0.0-6.0-35.0","1822057","A","2024/3/22 12:46:57","2024/3/22 12:52:13","4639","Array","aptness_rating","Array","Main","A","12","105","建物","角砂糖","1","建物は脆（もろ）い","5",NULL
NULL,"survey-likert","45","273426","0.0-6.0-36.0","1822057","A","2024/3/22 12:46:57","2024/3/22 12:52:13","5670","Array","aptness_rating","Array","Main","A","27","89","愛","季節","2","愛は移り変わり、繰り返す","7",NULL
NULL,"survey-likert","46","277107","0.0-6.0-37.0","1822057","A","2024/3/22 12:46:57","2024/3/22 12:52:13","3662","Array","aptness_rating","Array","Main","A","18","75","空","鏡","2","空は澄（す）んでいて、きれいだ","1",NULL
NULL,"survey-likert","47","282389","0.0-6.0-38.0","1822057","A","2024/3/22 12:46:57","2024/3/22 12:52:13","5271","Array","aptness_rating","Array","Main","A","24","62","微風","吐息","2","微風は優しく、暖かい","5",NULL
NULL,"survey-likert","48","288728","0.0-6.0-39.0","1822057","A","2024/3/22 12:46:57","2024/3/22 12:52:13","6327","Array","aptness_rating","Array","Main","A","8","80","煙草","時限爆弾","1","煙草は寿命を縮める","5",NULL
NULL,"survey-likert","49","295262","0.0-6.0-40.0","1822057","A","2024/3/22 12:46:57","2024/3/22 12:52:13","6523","Array","aptness_rating","Array","Main","A","45","95","礼儀","檻（おり）","3","礼儀は堅苦しく、縛られて、厳しい","5",NULL
NULL,"survey-likert","50","302280","0.0-6.0-41.0","1822057","A","2024/3/22 12:46:57","2024/3/22 12:52:13","7004","Array","aptness_rating","Array","Main","A","40","117","唇（くちびる）","蛭（ひる）","3","唇（くちびる）は気持ち悪く、分厚く、湿っている","5",NULL
NULL,"survey-likert","51","306272","0.0-6.0-42.0","1822057","A","2024/3/22 12:46:57","2024/3/22 12:52:13","3979","Array","aptness_rating","Array","Main","A","36","33","沈黙","海底","3","沈黙は静かで、暗く、深い","7",NULL
NULL,"survey-likert","52","310760","0.0-6.0-43.0","1822057","A","2024/3/22 12:46:57","2024/3/22 12:52:13","4469","Array","aptness_rating","Array","Main","A","21","58","デモ","雪崩（なだれ）","2","デモは止められず、勢いがある","6",NULL
NULL,"survey-likert","53","313897","0.0-6.0-44.0","1822057","A","2024/3/22 12:46:57","2024/3/22 12:52:13","3126","Array","aptness_rating","Array","Main","A","16","16","楽譜","暗号","2","楽譜はわからず、読めない","7",NULL
NULL,"html-keyboard-response","54","315555","0.0-7.0","1822057","A","2024/3/22 12:46:57","2024/3/22 12:52:13","1641"," ","debrief",NULL,NULL,NULL,NULL,NULL,NULL,NULL,NULL,NULL,NULL,"<p style='text-align:left'>これで実験は終了です。お疲れ様でした。</p><p style='text-align:left'>スペースキーを押して次の実験に遷移するのをお待ちください。</p>"
"1","fullscreen","0","2313","0.0-0.0","1181538","B","2024/3/22 12:48:18","2024/3/22 12:53:06",NULL,NULL,NULL,NULL,NULL,NULL,NULL,NULL,NULL,NULL,NULL,NULL,NULL,NULL
NULL,"survey-html-form","1","11088","0.0-1.0","1181538","B","2024/3/22 12:48:18","2024/3/22 12:53:06","8770","Array","instruction_1",NULL,NULL,NULL,NULL,NULL,NULL,NULL,NULL,NULL,NULL,NULL
NULL,"survey-html-form","2","20471","0.0-2.0","1181538","B","2024/3/22 12:48:18","2024/3/22 12:53:06","9382","Array","instruction_2",NULL,NULL,NULL,NULL,NULL,NULL,NULL,NULL,NULL,NULL,NULL
NULL,"survey-html-form","3","27831","0.0-3.0","1181538","B","2024/3/22 12:48:18","2024/3/22 12:53:06","7359","Array","instruction_3",NULL,NULL,NULL,NULL,NULL,NULL,NULL,NULL,NULL,NULL,NULL
NULL,"survey-likert","4","39520","0.0-4.0-0.0","1181538","B","2024/3/22 12:48:18","2024/3/22 12:53:06","11687","Array","aptness_rating","Array","Practice","P","P1","E06","幸福","黄金","3","幸福は大切で、価値があり、輝かしい","2",NULL
NULL,"survey-likert","5","43448","0.0-4.0-1.0","1181538","B","2024/3/22 12:48:18","2024/3/22 12:53:06","3925","Array","aptness_rating","Array","Practice","P","P2","E13","弾丸","亀","1","弾丸は速い","1",NULL
NULL,"survey-likert","6","48712","0.0-4.0-2.0","1181538","B","2024/3/22 12:48:18","2024/3/22 12:53:06","5260","Array","aptness_rating","Array","Practice","P","P3","E48","結婚","冷蔵庫","2","結婚は状態を保存し、冷える","2",NULL
NULL,"survey-likert","7","53783","0.0-4.0-3.0","1181538","B","2024/3/22 12:48:18","2024/3/22 12:53:06","5067","Array","aptness_rating","Array","Practice","P","P4","E04","辞書","顕微鏡","2","辞書は分厚く、四角い","1",NULL
NULL,"survey-html-form","8","65372","0.0-5.0","1181538","B","2024/3/22 12:48:18","2024/3/22 12:53:06","11581","Array","instruction_4",NULL,NULL,NULL,NULL,NULL,NULL,NULL,NULL,NULL,NULL,NULL
NULL,"survey-likert","9","70749","0.0-6.0-0.0","1181538","B","2024/3/22 12:48:18","2024/3/22 12:53:06","5375","Array","aptness_rating","Array","Main","B","39","99","眼","湖","2","眼は美しく、澄（す）んでいる","6",NULL
NULL,"survey-likert","10","73965","0.0-6.0-1.0","1181538","B","2024/3/22 12:48:18","2024/3/22 12:53:06","3213","Array","aptness_rating","Array","Main","B","19","9","子供","天使","1","子供はかわいい","5",NULL
NULL,"survey-likert","11","77149","0.0-6.0-2.0","1181538","B","2024/3/22 12:48:18","2024/3/22 12:53:06","3181","Array","aptness_rating","Array","Main","B","23","45","教育","階段","1","教育は段階を踏んでいく","6",NULL
NULL,"survey-likert","12","82253","0.0-6.0-3.0","1181538","B","2024/3/22 12:48:18","2024/3/22 12:53:06","5101","Array","aptness_rating","Array","Main","B","6","14","暴動","嵐","3","暴動は激しく、人を巻き込み、突然起こる","6",NULL
NULL,"survey-likert","13","85629","0.0-6.0-4.0","1181538","B","2024/3/22 12:48:18","2024/3/22 12:53:06","3371","Array","aptness_rating","Array","Main","B","37","59","霧（きり）","ベール","2","霧（きり）は白く、覆う","6",NULL
NULL,"survey-likert","14","90437","0.0-6.0-5.0","1181538","B","2024/3/22 12:48:18","2024/3/22 12:53:06","4806","Array","aptness_rating","Array","Main","B","15","74","子猫","王女","3","子猫はかわいく、大切にされていおり、わがままだ","5",NULL
NULL,"survey-likert","15","96669","0.0-6.0-6.0","1181538","B","2024/3/22 12:48:18","2024/3/22 12:53:06","6229","Array","aptness_rating","Array","Main","B","12","105","建物","角砂糖","3","建物は脆（もろ）く、四角く、白い","6",NULL
NULL,"survey-likert","16","101397","0.0-6.0-7.0","1181538","B","2024/3/22 12:48:18","2024/3/22 12:53:06","4725","Array","aptness_rating","Array","Main","B","36","33","沈黙","海底","2","沈黙は静かで、暗い","6",NULL
NULL,"survey-likert","17","112317","0.0-6.0-8.0","1181538","B","2024/3/22 12:48:18","2024/3/22 12:53:06","10917","Array","aptness_rating","Array","Main","B","4","38","蝶","踊り子","3","蝶は美しく、舞い、華（はな）やかだ","6",NULL
NULL,"survey-likert","18","115517","0.0-6.0-9.0","1181538","B","2024/3/22 12:48:18","2024/3/22 12:53:06","3197","Array","aptness_rating","Array","Main","B","21","58","デモ","雪崩（なだれ）","1","デモは止められない","5",NULL
NULL,"survey-likert","19","126349","0.0-6.0-10.0","1181538","B","2024/3/22 12:48:18","2024/3/22 12:53:06","10830","Array","aptness_rating","Array","Main","B","34","17","希望","灯火","2","希望は消えて、明るい","5",NULL
NULL,"survey-likert","20","131973","0.0-6.0-11.0","1181538","B","2024/3/22 12:48:18","2024/3/22 12:53:06","5621","Array","aptness_rating","Array","Main","B","8","80","煙草","時限爆弾","3","煙草は寿命を縮めて、危険で、燃える","5",NULL
NULL,"survey-likert","21","137661","0.0-6.0-12.0","1181538","B","2024/3/22 12:48:18","2024/3/22 12:53:06","5686","Array","aptness_rating","Array","Main","B","26","52","仕事","牢獄（ろうごく）","1","仕事はつらい","5",NULL
NULL,"survey-likert","22","141788","0.0-6.0-13.0","1181538","B","2024/3/22 12:48:18","2024/3/22 12:53:06","4125","Array","aptness_rating","Array","Main","B","2","81","夕日","銅貨","3","夕日は丸く、輝いていており、赤い","4",NULL
NULL,"survey-likert","23","144605","0.0-6.0-14.0","1181538","B","2024/3/22 12:48:18","2024/3/22 12:53:06","2814","Array","aptness_rating","Array","Main","B","42","19","心臓","時計","2","心臓は一定のリズムを刻み、正確だ","5",NULL
NULL,"survey-likert","24","147501","0.0-6.0-15.0","1181538","B","2024/3/22 12:48:18","2024/3/22 12:53:06","2894","Array","aptness_rating","Array","Main","B","22","61","疑惑","腫瘍（しゅよう）","1","疑惑はふくれあがる","5",NULL
NULL,"survey-likert","25","151805","0.0-6.0-16.0","1181538","B","2024/3/22 12:48:18","2024/3/22 12:53:06","4302","Array","aptness_rating","Array","Main","B","16","16","楽譜","暗号","1","楽譜はわからない","6",NULL
NULL,"survey-likert","26","158085","0.0-6.0-17.0","1181538","B","2024/3/22 12:48:18","2024/3/22 12:53:06","6277","Array","aptness_rating","Array","Main","B","1","91","皮肉","短刀","3","皮肉は人を傷つけて、鋭く、心に刺さる","5",NULL
NULL,"survey-likert","27","164372","0.0-6.0-18.0","1181538","B","2024/3/22 12:48:18","2024/3/22 12:53:06","6285","Array","aptness_rating","Array","Main","B","9","26","真珠","水滴","3","真珠は美しく、丸く、透き通っている","6",NULL
NULL,"survey-likert","28","167821","0.0-6.0-19.0","1181538","B","2024/3/22 12:48:18","2024/3/22 12:53:06","3446","Array","aptness_rating","Array","Main","B","5","63","時間","洪水","3","時間は止められず、流れて、逆らえない","5",NULL
NULL,"survey-likert","29","171228","0.0-6.0-20.0","1181538","B","2024/3/22 12:48:18","2024/3/22 12:53:06","3405","Array","aptness_rating","Array","Main","B","35","73","運命","通り魔","2","運命は予測できず、恐ろしい","5",NULL
NULL,"survey-likert","30","175548","0.0-6.0-21.0","1181538","B","2024/3/22 12:48:18","2024/3/22 12:53:06","4317","Array","aptness_rating","Array","Main","B","3","39","研究","登山","3","研究は険（けわ）しい道のりで、達成感があり、苦しい","6",NULL
NULL,"survey-likert","31","181805","0.0-6.0-22.0","1181538","B","2024/3/22 12:48:18","2024/3/22 12:53:06","6254","Array","aptness_rating","Array","Main","B","32","20","不安","濃霧（のうむ）","2","不安は先が見えず、晴れない","6",NULL
NULL,"survey-likert","32","191044","0.0-6.0-23.0","1181538","B","2024/3/22 12:48:18","2024/3/22 12:53:06","9236","Array","aptness_rating","Array","Main","B","11","48","雨雲","薄墨","3","雨雲は灰色で、暗く、黒い","5",NULL
NULL,"survey-likert","33","195932","0.0-6.0-24.0","1181538","B","2024/3/22 12:48:18","2024/3/22 12:53:06","4886","Array","aptness_rating","Array","Main","B","14","86","学校","工場","3","学校は人がたくさんいて、画一的で、人を生産する","5",NULL
NULL,"survey-likert","34","199908","0.0-6.0-25.0","1181538","B","2024/3/22 12:48:18","2024/3/22 12:53:06","3973","Array","aptness_rating","Array","Main","B","30","32","審判","天秤","1","審判は公平だ","5",NULL
NULL,"survey-likert","35","202652","0.0-6.0-26.0","1181538","B","2024/3/22 12:48:18","2024/3/22 12:53:06","2742","Array","aptness_rating","Array","Main","B","38","5","激怒","噴火","2","激怒は突然起こり、勢いが激しい","6",NULL
NULL,"survey-likert","36","205740","0.0-6.0-27.0","1181538","B","2024/3/22 12:48:18","2024/3/22 12:53:06","3085","Array","aptness_rating","Array","Main","B","31","112","雑巾","亀","2","雑巾は臭く、汚い","3",NULL
NULL,"survey-likert","37","209860","0.0-6.0-28.0","1181538","B","2024/3/22 12:48:18","2024/3/22 12:53:06","4118","Array","aptness_rating","Array","Main","B","7","88","批判","メス","3","批判は人を傷つけて、鋭く、痛いところをつく","5",NULL
NULL,"survey-likert","38","212900","0.0-6.0-29.0","1181538","B","2024/3/22 12:48:18","2024/3/22 12:53:06","3038","Array","aptness_rating","Array","Main","B","41","2","笑顔","花","2","笑顔は美しく、明るい","5",NULL
NULL,"survey-likert","39","216620","0.0-6.0-30.0","1181538","B","2024/3/22 12:48:18","2024/3/22 12:53:06","3717","Array","aptness_rating","Array","Main","B","28","85","利息","年貢","1","利息は払わなければならない","6",NULL
NULL,"survey-likert","40","222885","0.0-6.0-31.0","1181538","B","2024/3/22 12:48:18","2024/3/22 12:53:06","6261","Array","aptness_rating","Array","Main","B","43","119","麦畑","海","2","麦畑は波打ち、広い","6",NULL
NULL,"survey-likert","41","229596","0.0-6.0-32.0","1181538","B","2024/3/22 12:48:18","2024/3/22 12:53:06","6709","Array","aptness_rating","Array","Main","B","24","62","微風","吐息","1","微風は優しい","3",NULL
NULL,"survey-likert","42","233188","0.0-6.0-33.0","1181538","B","2024/3/22 12:48:18","2024/3/22 12:53:06","3590","Array","aptness_rating","Array","Main","B","29","110","椿（つばき）","ひとだま","1","椿（つばき）は丸い","2",NULL
NULL,"survey-likert","43","237660","0.0-6.0-34.0","1181538","B","2024/3/22 12:48:18","2024/3/22 12:53:06","4469","Array","aptness_rating","Array","Main","B","27","89","愛","季節","1","愛は移り変わる","5",NULL
NULL,"survey-likert","44","247156","0.0-6.0-35.0","1181538","B","2024/3/22 12:48:18","2024/3/22 12:53:06","9494","Array","aptness_rating","Array","Main","B","17","83","煙突","石碑","1","煙突はまっすぐ立っている","5",NULL
NULL,"survey-likert","45","249892","0.0-6.0-36.0","1181538","B","2024/3/22 12:48:18","2024/3/22 12:53:06","2733","Array","aptness_rating","Array","Main","B","44","72","香水","花束","2","香水は良い香りがして、華やかだ","5",NULL
NULL,"survey-likert","46","253932","0.0-6.0-37.0","1181538","B","2024/3/22 12:48:18","2024/3/22 12:53:06","4038","Array","aptness_rating","Array","Main","B","40","117","唇（くちびる）","蛭（ひる）","2","唇（くちびる）は気持ち悪く、分厚い","5",NULL
NULL,"survey-likert","47","257213","0.0-6.0-38.0","1181538","B","2024/3/22 12:48:18","2024/3/22 12:53:06","3277","Array","aptness_rating","Array","Main","B","25","77","山","王様","1","山は大きい","4",NULL
NULL,"survey-likert","48","260228","0.0-6.0-39.0","1181538","B","2024/3/22 12:48:18","2024/3/22 12:53:06","3013","Array","aptness_rating","Array","Main","B","18","75","空","鏡","1","空は澄（す）んでいる","5",NULL
NULL,"survey-likert","49","263420","0.0-6.0-40.0","1181538","B","2024/3/22 12:48:18","2024/3/22 12:53:06","3190","Array","aptness_rating","Array","Main","B","45","95","礼儀","檻（おり）","2","礼儀は堅苦しく、縛られる","6",NULL
NULL,"survey-likert","50","266740","0.0-6.0-41.0","1181538","B","2024/3/22 12:48:18","2024/3/22 12:53:06","3317","Array","aptness_rating","Array","Main","B","33","55","理論","建物","2","理論は積み重ねて、組み立てられる","5",NULL
NULL,"survey-likert","51","271772","0.0-6.0-42.0","1181538","B","2024/3/22 12:48:18","2024/3/22 12:53:06","5030","Array","aptness_rating","Array","Main","B","13","12","衝撃","電気","3","衝撃は一瞬の出来事で、突然来て、ビリビリする","6",NULL
NULL,"survey-likert","52","277948","0.0-6.0-43.0","1181538","B","2024/3/22 12:48:18","2024/3/22 12:53:06","6173","Array","aptness_rating","Array","Main","B","10","4","つらら","水晶細工","3","つららは美しく、透明で、繊細だ","6",NULL
NULL,"survey-likert","53","284628","0.0-6.0-44.0","1181538","B","2024/3/22 12:48:18","2024/3/22 12:53:06","6677","Array","aptness_rating","Array","Main","B","20","96","柿","ちょうちん","1","柿は丸い","2",NULL
NULL,"html-keyboard-response","54","287245","0.0-7.0","1181538","B","2024/3/22 12:48:18","2024/3/22 12:53:06","2613"," ","debrief",NULL,NULL,NULL,NULL,NULL,NULL,NULL,NULL,NULL,NULL,"<p style='text-align:left'>これで実験は終了です。お疲れ様でした。</p><p style='text-align:left'>スペースキーを押して次の実験に遷移するのをお待ちください。</p>"
"1","fullscreen","0","10188","0.0-0.0","2141268","B","2024/3/22 12:48:40","2024/3/22 12:53:39",NULL,NULL,NULL,NULL,NULL,NULL,NULL,NULL,NULL,NULL,NULL,NULL,NULL,NULL
NULL,"survey-html-form","1","13816","0.0-1.0","2141268","B","2024/3/22 12:48:40","2024/3/22 12:53:39","3626","Array","instruction_1",NULL,NULL,NULL,NULL,NULL,NULL,NULL,NULL,NULL,NULL,NULL
NULL,"survey-html-form","2","27815","0.0-2.0","2141268","B","2024/3/22 12:48:40","2024/3/22 12:53:39","13999","Array","instruction_2",NULL,NULL,NULL,NULL,NULL,NULL,NULL,NULL,NULL,NULL,NULL
NULL,"survey-html-form","3","35071","0.0-3.0","2141268","B","2024/3/22 12:48:40","2024/3/22 12:53:39","7255","Array","instruction_3",NULL,NULL,NULL,NULL,NULL,NULL,NULL,NULL,NULL,NULL,NULL
NULL,"survey-likert","4","41774","0.0-4.0-0.0","2141268","B","2024/3/22 12:48:40","2024/3/22 12:53:39","6702","Array","aptness_rating","Array","Practice","P","P1","E06","幸福","黄金","3","幸福は大切で、価値があり、輝かしい","2",NULL
NULL,"survey-likert","5","44847","0.0-4.0-1.0","2141268","B","2024/3/22 12:48:40","2024/3/22 12:53:39","3071","Array","aptness_rating","Array","Practice","P","P2","E13","弾丸","亀","1","弾丸は速い","1",NULL
NULL,"survey-likert","6","52511","0.0-4.0-2.0","2141268","B","2024/3/22 12:48:40","2024/3/22 12:53:39","7662","Array","aptness_rating","Array","Practice","P","P3","E48","結婚","冷蔵庫","2","結婚は状態を保存し、冷える","2",NULL
NULL,"survey-likert","7","55951","0.0-4.0-3.0","2141268","B","2024/3/22 12:48:40","2024/3/22 12:53:39","3438","Array","aptness_rating","Array","Practice","P","P4","E04","辞書","顕微鏡","2","辞書は分厚く、四角い","1",NULL
NULL,"survey-html-form","8","68411","0.0-5.0","2141268","B","2024/3/22 12:48:40","2024/3/22 12:53:39","12446","Array","instruction_4",NULL,NULL,NULL,NULL,NULL,NULL,NULL,NULL,NULL,NULL,NULL
NULL,"survey-likert","9","77788","0.0-6.0-0.0","2141268","B","2024/3/22 12:48:40","2024/3/22 12:53:39","9375","Array","aptness_rating","Array","Main","B","10","4","つらら","水晶細工","3","つららは美しく、透明で、繊細だ","7",NULL
NULL,"survey-likert","10","83347","0.0-6.0-1.0","2141268","B","2024/3/22 12:48:40","2024/3/22 12:53:39","5558","Array","aptness_rating","Array","Main","B","44","72","香水","花束","2","香水は良い香りがして、華やかだ","7",NULL
NULL,"survey-likert","11","88740","0.0-6.0-2.0","2141268","B","2024/3/22 12:48:40","2024/3/22 12:53:39","5390","Array","aptness_rating","Array","Main","B","14","86","学校","工場","3","学校は人がたくさんいて、画一的で、人を生産する","6",NULL
NULL,"survey-likert","12","97075","0.0-6.0-3.0","2141268","B","2024/3/22 12:48:40","2024/3/22 12:53:39","8334","Array","aptness_rating","Array","Main","B","18","75","空","鏡","1","空は澄（す）んでいる","6",NULL
NULL,"survey-likert","13","101235","0.0-6.0-4.0","2141268","B","2024/3/22 12:48:40","2024/3/22 12:53:39","4158","Array","aptness_rating","Array","Main","B","25","77","山","王様","1","山は大きい","5",NULL
NULL,"survey-likert","14","105099","0.0-6.0-5.0","2141268","B","2024/3/22 12:48:40","2024/3/22 12:53:39","3862","Array","aptness_rating","Array","Main","B","23","45","教育","階段","1","教育は段階を踏んでいく","5",NULL
NULL,"survey-likert","15","111891","0.0-6.0-6.0","2141268","B","2024/3/22 12:48:40","2024/3/22 12:53:39","6790","Array","aptness_rating","Array","Main","B","30","32","審判","天秤","1","審判は公平だ","6",NULL
NULL,"survey-likert","16","115555","0.0-6.0-7.0","2141268","B","2024/3/22 12:48:40","2024/3/22 12:53:39","3662","Array","aptness_rating","Array","Main","B","21","58","デモ","雪崩（なだれ）","1","デモは止められない","7",NULL
NULL,"survey-likert","17","122131","0.0-6.0-8.0","2141268","B","2024/3/22 12:48:40","2024/3/22 12:53:39","6574","Array","aptness_rating","Array","Main","B","3","39","研究","登山","3","研究は険（けわ）しい道のりで、達成感があり、苦しい","7",NULL
NULL,"survey-likert","18","127243","0.0-6.0-9.0","2141268","B","2024/3/22 12:48:40","2024/3/22 12:53:39","5110","Array","aptness_rating","Array","Main","B","31","112","雑巾","亀","2","雑巾は臭く、汚い","1",NULL
NULL,"survey-likert","19","132483","0.0-6.0-10.0","2141268","B","2024/3/22 12:48:40","2024/3/22 12:53:39","5238","Array","aptness_rating","Array","Main","B","11","48","雨雲","薄墨","3","雨雲は灰色で、暗く、黒い","6",NULL
NULL,"survey-likert","20","136155","0.0-6.0-11.0","2141268","B","2024/3/22 12:48:40","2024/3/22 12:53:39","3670","Array","aptness_rating","Array","Main","B","39","99","眼","湖","2","眼は美しく、澄（す）んでいる","5",NULL
NULL,"survey-likert","21","138819","0.0-6.0-12.0","2141268","B","2024/3/22 12:48:40","2024/3/22 12:53:39","2662","Array","aptness_rating","Array","Main","B","38","5","激怒","噴火","2","激怒は突然起こり、勢いが激しい","7",NULL
NULL,"survey-likert","22","142203","0.0-6.0-13.0","2141268","B","2024/3/22 12:48:40","2024/3/22 12:53:39","3382","Array","aptness_rating","Array","Main","B","42","19","心臓","時計","2","心臓は一定のリズムを刻み、正確だ","6",NULL
NULL,"survey-likert","23","147035","0.0-6.0-14.0","2141268","B","2024/3/22 12:48:40","2024/3/22 12:53:39","4830","Array","aptness_rating","Array","Main","B","24","62","微風","吐息","1","微風は優しい","6",NULL
NULL,"survey-likert","24","180467","0.0-6.0-15.0","2141268","B","2024/3/22 12:48:40","2024/3/22 12:53:39","33430","Array","aptness_rating","Array","Main","B","27","89","愛","季節","1","愛は移り変わる","5",NULL
NULL,"survey-likert","25","184106","0.0-6.0-16.0","2141268","B","2024/3/22 12:48:40","2024/3/22 12:53:39","3638","Array","aptness_rating","Array","Main","B","41","2","笑顔","花","2","笑顔は美しく、明るい","7",NULL
NULL,"survey-likert","26","188466","0.0-6.0-17.0","2141268","B","2024/3/22 12:48:40","2024/3/22 12:53:39","4358","Array","aptness_rating","Array","Main","B","43","119","麦畑","海","2","麦畑は波打ち、広い","5",NULL
NULL,"survey-likert","27","192586","0.0-6.0-18.0","2141268","B","2024/3/22 12:48:40","2024/3/22 12:53:39","4118","Array","aptness_rating","Array","Main","B","16","16","楽譜","暗号","1","楽譜はわからない","5",NULL
NULL,"survey-likert","28","196626","0.0-6.0-19.0","2141268","B","2024/3/22 12:48:40","2024/3/22 12:53:39","4038","Array","aptness_rating","Array","Main","B","13","12","衝撃","電気","3","衝撃は一瞬の出来事で、突然来て、ビリビリする","6",NULL
NULL,"survey-likert","29","198770","0.0-6.0-20.0","2141268","B","2024/3/22 12:48:40","2024/3/22 12:53:39","2142","Array","aptness_rating","Array","Main","B","4","38","蝶","踊り子","3","蝶は美しく、舞い、華（はな）やかだ","5",NULL
NULL,"survey-likert","30","202682","0.0-6.0-21.0","2141268","B","2024/3/22 12:48:40","2024/3/22 12:53:39","3910","Array","aptness_rating","Array","Main","B","34","17","希望","灯火","2","希望は消えて、明るい","7",NULL
NULL,"survey-likert","31","206570","0.0-6.0-22.0","2141268","B","2024/3/22 12:48:40","2024/3/22 12:53:39","3886","Array","aptness_rating","Array","Main","B","17","83","煙突","石碑","1","煙突はまっすぐ立っている","4",NULL
NULL,"survey-likert","32","212026","0.0-6.0-23.0","2141268","B","2024/3/22 12:48:40","2024/3/22 12:53:39","5454","Array","aptness_rating","Array","Main","B","12","105","建物","角砂糖","3","建物は脆（もろ）く、四角く、白い","3",NULL
NULL,"survey-likert","33","214754","0.0-6.0-24.0","2141268","B","2024/3/22 12:48:40","2024/3/22 12:53:39","2726","Array","aptness_rating","Array","Main","B","5","63","時間","洪水","3","時間は止められず、流れて、逆らえない","5",NULL
NULL,"survey-likert","34","218226","0.0-6.0-25.0","2141268","B","2024/3/22 12:48:40","2024/3/22 12:53:39","3470","Array","aptness_rating","Array","Main","B","1","91","皮肉","短刀","3","皮肉は人を傷つけて、鋭く、心に刺さる","6",NULL
NULL,"survey-likert","35","220858","0.0-6.0-26.0","2141268","B","2024/3/22 12:48:40","2024/3/22 12:53:39","2630","Array","aptness_rating","Array","Main","B","26","52","仕事","牢獄（ろうごく）","1","仕事はつらい","6",NULL
NULL,"survey-likert","36","225074","0.0-6.0-27.0","2141268","B","2024/3/22 12:48:40","2024/3/22 12:53:39","4214","Array","aptness_rating","Array","Main","B","28","85","利息","年貢","1","利息は払わなければならない","3",NULL
NULL,"survey-likert","37","228610","0.0-6.0-28.0","2141268","B","2024/3/22 12:48:40","2024/3/22 12:53:39","3534","Array","aptness_rating","Array","Main","B","33","55","理論","建物","2","理論は積み重ねて、組み立てられる","6",NULL
NULL,"survey-likert","38","231514","0.0-6.0-29.0","2141268","B","2024/3/22 12:48:40","2024/3/22 12:53:39","2902","Array","aptness_rating","Array","Main","B","19","9","子供","天使","1","子供はかわいい","7",NULL
NULL,"survey-likert","39","235002","0.0-6.0-30.0","2141268","B","2024/3/22 12:48:40","2024/3/22 12:53:39","3486","Array","aptness_rating","Array","Main","B","15","74","子猫","王女","3","子猫はかわいく、大切にされていおり、わがままだ","6",NULL
NULL,"survey-likert","40","240098","0.0-6.0-31.0","2141268","B","2024/3/22 12:48:40","2024/3/22 12:53:39","5094","Array","aptness_rating","Array","Main","B","2","81","夕日","銅貨","3","夕日は丸く、輝いていており、赤い","4",NULL
NULL,"survey-likert","41","243418","0.0-6.0-32.0","2141268","B","2024/3/22 12:48:40","2024/3/22 12:53:39","3318","Array","aptness_rating","Array","Main","B","32","20","不安","濃霧（のうむ）","2","不安は先が見えず、晴れない","6",NULL
NULL,"survey-likert","42","247290","0.0-6.0-33.0","2141268","B","2024/3/22 12:48:40","2024/3/22 12:53:39","3870","Array","aptness_rating","Array","Main","B","29","110","椿（つばき）","ひとだま","1","椿（つばき）は丸い","1",NULL
NULL,"survey-likert","43","250058","0.0-6.0-34.0","2141268","B","2024/3/22 12:48:40","2024/3/22 12:53:39","2766","Array","aptness_rating","Array","Main","B","35","73","運命","通り魔","2","運命は予測できず、恐ろしい","6",NULL
