"success","timeout","failed_images","failed_audio","failed_video","trial_type","trial_index","time_elapsed","internal_node_id","cwid","Condition","StartTime","EndTime","rt","response","task","init_locations","moves","final_locations","TrialType","SetType","FinStimID","NID","Topic","Vehicle","NumFeatures","F1","F2","F3","TargetDirTopic","TargetDirVehicle","TargetDirF1","TargetDirF2","TargetDirF3","iniloc_T_x","iniloc_T_y","iniloc_V_x","iniloc_V_y","iniloc_F1_x","iniloc_F1_y","iniloc_F2_x","iniloc_F2_y","iniloc_F3_x","iniloc_F3_y","finloc_T_x","finloc_T_y","finloc_V_x","finloc_V_y","finloc_F1_x","finloc_F1_y","finloc_F2_x","finloc_F2_y","finloc_F3_x","finloc_F3_y","stimulus"
"1",,"Array","Array","Array","preload","0","2","0.0-0.0","4287323","B","2024/3/22 12:47:44","2024/3/22 12:51:28",NULL,NULL,NULL,NULL,NULL,NULL,NULL,NULL,NULL,NULL,NULL,NULL,NULL,NULL,NULL,NULL,NULL,NULL,NULL,NULL,NULL,NULL,NULL,NULL,NULL,NULL,NULL,NULL,NULL,NULL,NULL,NULL,NULL,NULL,NULL,NULL,NULL,NULL,NULL,NULL,NULL,NULL
"1",NULL,NULL,NULL,NULL,"fullscreen","1","2649","0.0-1.0","4287323","B","2024/3/22 12:47:44","2024/3/22 12:51:28",NULL,NULL,NULL,NULL,NULL,NULL,NULL,NULL,NULL,NULL,NULL,NULL,NULL,NULL,NULL,NULL,NULL,NULL,NULL,NULL,NULL,NULL,NULL,NULL,NULL,NULL,NULL,NULL,NULL,NULL,NULL,NULL,NULL,NULL,NULL,NULL,NULL,NULL,NULL,NULL,NULL,NULL
NULL,NULL,NULL,NULL,NULL,"survey-html-form","2","5753","0.0-2.0","4287323","B","2024/3/22 12:47:44","2024/3/22 12:51:28","3102","Array","instruction_1a",NULL,NULL,NULL,NULL,NULL,NULL,NULL,NULL,NULL,NULL,NULL,NULL,NULL,NULL,NULL,NULL,NULL,NULL,NULL,NULL,NULL,NULL,NULL,NULL,NULL,NULL,NULL,NULL,NULL,NULL,NULL,NULL,NULL,NULL,NULL,NULL,NULL,NULL,NULL
NULL,NULL,NULL,NULL,NULL,"survey-html-form","3","12969","0.0-3.0","4287323","B","2024/3/22 12:47:44","2024/3/22 12:51:28","7215","Array","instruction_1b",NULL,NULL,NULL,NULL,NULL,NULL,NULL,NULL,NULL,NULL,NULL,NULL,NULL,NULL,NULL,NULL,NULL,NULL,NULL,NULL,NULL,NULL,NULL,NULL,NULL,NULL,NULL,NULL,NULL,NULL,NULL,NULL,NULL,NULL,NULL,NULL,NULL,NULL,NULL
NULL,NULL,NULL,NULL,NULL,"survey-html-form","4","21255","0.0-4.0","4287323","B","2024/3/22 12:47:44","2024/3/22 12:51:28","8285","Array","instruction_1c",NULL,NULL,NULL,NULL,NULL,NULL,NULL,NULL,NULL,NULL,NULL,NULL,NULL,NULL,NULL,NULL,NULL,NULL,NULL,NULL,NULL,NULL,NULL,NULL,NULL,NULL,NULL,NULL,NULL,NULL,NULL,NULL,NULL,NULL,NULL,NULL,NULL,NULL,NULL
NULL,NULL,NULL,NULL,NULL,"free-sort","5","29816","0.0-5.0-0.0-0.0","4287323","B","2024/3/22 12:47:44","2024/3/22 12:51:28","8560",NULL,"MultiArrangementTask","Array","Array","Array","Practice","P","P1","E06","幸福","黄金","3","大切だ","価値がある","輝かしい","stimulus/images/practice/e06_T.png",NULL,"stimulus/images/practice/e06_F1.png","stimulus/images/practice/e06_F2.png","stimulus/images/practice/e06_F3.png","96","175","396","194","87","304","361","162","216","442","80","260","400","260","87","304","128","256","106","285",NULL
NULL,NULL,NULL,NULL,NULL,"free-sort","6","33806","0.0-5.0-1.0-0.0","4287323","B","2024/3/22 12:47:44","2024/3/22 12:51:28","3990",NULL,"MultiArrangementTask","Array","Array","Array","Practice","P","P2","E13","弾丸","ロケット","1","速い",,,"stimulus/images/practice/e13_T.png",NULL,"stimulus/images/practice/e13_F1.png",,,"382","277","107","57","333","306",NULL,NULL,NULL,NULL,"80","260","400","260","115","318",NULL,NULL,NULL,NULL,NULL
NULL,NULL,NULL,NULL,NULL,"free-sort","7","37549","0.0-5.0-2.0-0.0","4287323","B","2024/3/22 12:47:44","2024/3/22 12:51:28","3742",NULL,"MultiArrangementTask","Array","Array","Array","Practice","P","P3","E48","結婚","冷蔵庫","2","物が詰まる","冷やす",,"stimulus/images/practice/e48_T.png",NULL,"stimulus/images/practice/e48_F1.png","stimulus/images/practice/e48_F2.png",,"313","248","4","90","296","142","6","405",NULL,NULL,"80","260","400","260","97","211","445","307",NULL,NULL,NULL
NULL,NULL,NULL,NULL,NULL,"survey-html-form","8","38291","0.0-6.0","4287323","B","2024/3/22 12:47:44","2024/3/22 12:51:28","740","Array","instruction_1d",NULL,NULL,NULL,NULL,NULL,NULL,NULL,NULL,NULL,NULL,NULL,NULL,NULL,NULL,NULL,NULL,NULL,NULL,NULL,NULL,NULL,NULL,NULL,NULL,NULL,NULL,NULL,NULL,NULL,NULL,NULL,NULL,NULL,NULL,NULL,NULL,NULL,NULL,NULL
NULL,NULL,NULL,NULL,NULL,"free-sort","9","41043","0.0-7.0-0.0-0.0","4287323","B","2024/3/22 12:47:44","2024/3/22 12:51:28","2752",NULL,"MultiArrangementTask","Array","Array","Array","Main","B","26","52","仕事","牢獄（ろうごく）","1","つらい",,,"stimulus/images/main/n52_T.png",NULL,"stimulus/images/main/n52_F1.png",,,"205","145","384","203","284","71",NULL,NULL,NULL,NULL,"80","260","400","260","77","232",NULL,NULL,NULL,NULL,NULL
NULL,NULL,NULL,NULL,NULL,"free-sort","10","45141","0.0-7.0-1.0-0.0","4287323","B","2024/3/22 12:47:44","2024/3/22 12:51:28","4097",NULL,"MultiArrangementTask","Array","Array","Array","Main","B","45","95","礼儀","檻（おり）","2","堅苦しい","縛られる",,"stimulus/images/main/n95_T.png",NULL,"stimulus/images/main/n95_F1.png","stimulus/images/main/n95_F2.png",,"243","422","301","187","438","416","363","65",NULL,NULL,"80","260","400","260","88","285","328","202",NULL,NULL,NULL
NULL,NULL,NULL,NULL,NULL,"free-sort","11","49984","0.0-7.0-2.0-0.0","4287323","B","2024/3/22 12:47:44","2024/3/22 12:51:28","4842",NULL,"MultiArrangementTask","Array","Array","Array","Main","B","43","119","麦畑","海","2","波打つ","広い",,"stimulus/images/main/n119_T.png",NULL,"stimulus/images/main/n119_F1.png","stimulus/images/main/n119_F2.png",,"205","235","380","235","346","410","100","248",NULL,NULL,"80","260","400","260","428","301","374","223",NULL,NULL,NULL
NULL,NULL,NULL,NULL,NULL,"free-sort","12","56324","0.0-7.0-3.0-0.0","4287323","B","2024/3/22 12:47:44","2024/3/22 12:51:28","6339",NULL,"MultiArrangementTask","Array","Array","Array","Main","B","9","26","真珠","水滴","3","美しい","丸い","透き通っている","stimulus/images/main/n26_T.png",NULL,"stimulus/images/main/n26_F1.png","stimulus/images/main/n26_F2.png","stimulus/images/main/n26_F3.png","231","116","87","26","190","49","4","436","77","276","80","260","400","260","104","215","97","296","384","320",NULL
NULL,NULL,NULL,NULL,NULL,"free-sort","13","61442","0.0-7.0-4.0-0.0","4287323","B","2024/3/22 12:47:44","2024/3/22 12:51:28","5117",NULL,"MultiArrangementTask","Array","Array","Array","Main","B","5","63","時間","洪水","3","止められない","流れる","逆らえない","stimulus/images/main/n63_T.png",NULL,"stimulus/images/main/n63_F1.png","stimulus/images/main/n63_F2.png","stimulus/images/main/n63_F3.png","30","334","405","237","298","177","299","215","152","267","80","260","400","260","122","330","383","194","407","289",NULL
NULL,NULL,NULL,NULL,NULL,"free-sort","14","64041","0.0-7.0-5.0-0.0","4287323","B","2024/3/22 12:47:44","2024/3/22 12:51:28","2598",NULL,"MultiArrangementTask","Array","Array","Array","Main","B","23","45","教育","階段","1","段階を踏んでいく",,,"stimulus/images/main/n45_T.png",NULL,"stimulus/images/main/n45_F1.png",,,"219","289","217","173","456","177",NULL,NULL,NULL,NULL,"80","260","400","260","119","309",NULL,NULL,NULL,NULL,NULL
NULL,NULL,NULL,NULL,NULL,"free-sort","15","67855","0.0-7.0-6.0-0.0","4287323","B","2024/3/22 12:47:44","2024/3/22 12:51:28","3813",NULL,"MultiArrangementTask","Array","Array","Array","Main","B","39","99","眼","湖","2","美しい","澄（す）んでいる",,"stimulus/images/main/n99_T.png",NULL,"stimulus/images/main/n99_F1.png","stimulus/images/main/n99_F2.png",,"229","175","149","315","399","211","355","442",NULL,NULL,"80","260","400","260","376","224","97","336",NULL,NULL,NULL
NULL,NULL,NULL,NULL,NULL,"free-sort","16","71546","0.0-7.0-7.0-0.0","4287323","B","2024/3/22 12:47:44","2024/3/22 12:51:28","3690",NULL,"MultiArrangementTask","Array","Array","Array","Main","B","31","112","雑巾","亀","2","臭い","汚い",,"stimulus/images/main/n112_T.png",NULL,"stimulus/images/main/n112_F1.png","stimulus/images/main/n112_F2.png",,"251","141","300","69","475","9","67","468",NULL,NULL,"80","260","400","260","110","227","124","304",NULL,NULL,NULL
NULL,NULL,NULL,NULL,NULL,"free-sort","17","73638","0.0-7.0-8.0-0.0","4287323","B","2024/3/22 12:47:44","2024/3/22 12:51:28","2091",NULL,"MultiArrangementTask","Array","Array","Array","Main","B","17","83","煙突","石碑","1","まっすぐ立っている",,,"stimulus/images/main/n83_T.png",NULL,"stimulus/images/main/n83_F1.png",,,"303","103","352","453","87","191",NULL,NULL,NULL,NULL,"80","260","400","260","375","306",NULL,NULL,NULL,NULL,NULL
NULL,NULL,NULL,NULL,NULL,"free-sort","18","77026","0.0-7.0-9.0-0.0","4287323","B","2024/3/22 12:47:44","2024/3/22 12:51:28","3387",NULL,"MultiArrangementTask","Array","Array","Array","Main","B","36","33","沈黙","海底","2","静かだ","暗い",,"stimulus/images/main/n33_T.png",NULL,"stimulus/images/main/n33_F1.png","stimulus/images/main/n33_F2.png",,"89","385","183","182","375","281","164","435",NULL,NULL,"80","260","400","260","380","313","105","269",NULL,NULL,NULL
NULL,NULL,NULL,NULL,NULL,"free-sort","19","85233","0.0-7.0-10.0-0.0","4287323","B","2024/3/22 12:47:44","2024/3/22 12:51:28","8206",NULL,"MultiArrangementTask","Array","Array","Array","Main","B","37","59","霧（きり）","ベール","2","白い","覆う",,"stimulus/images/main/n59_T.png",NULL,"stimulus/images/main/n59_F1.png","stimulus/images/main/n59_F2.png",,"108","384","347","218","389","462","260","184",NULL,NULL,"80","260","400","260","82","321","408","287",NULL,NULL,NULL
NULL,NULL,NULL,NULL,NULL,"free-sort","20","88257","0.0-7.0-11.0-0.0","4287323","B","2024/3/22 12:47:44","2024/3/22 12:51:28","3023",NULL,"MultiArrangementTask","Array","Array","Array","Main","B","27","89","愛","季節","1","移り変わる",,,"stimulus/images/main/n89_T.png",NULL,"stimulus/images/main/n89_F1.png",,,"64","319","77","482","179","493",NULL,NULL,NULL,NULL,"80","260","400","260","395","300",NULL,NULL,NULL,NULL,NULL
NULL,NULL,NULL,NULL,NULL,"free-sort","21","93971","0.0-7.0-12.0-0.0","4287323","B","2024/3/22 12:47:44","2024/3/22 12:51:28","5713",NULL,"MultiArrangementTask","Array","Array","Array","Main","B","42","19","心臓","時計","2","一定のリズムを刻む","正確だ",,"stimulus/images/main/n19_T.png",NULL,"stimulus/images/main/n19_F1.png","stimulus/images/main/n19_F2.png",,"329","247","439","188","454","462","51","1",NULL,NULL,"80","260","400","260","453","311","406","217",NULL,NULL,NULL
NULL,NULL,NULL,NULL,NULL,"free-sort","22","97183","0.0-7.0-13.0-0.0","4287323","B","2024/3/22 12:47:44","2024/3/22 12:51:28","3211",NULL,"MultiArrangementTask","Array","Array","Array","Main","B","29","110","椿（つばき）","ひとだま","1","丸い",,,"stimulus/images/main/n110_T.png",NULL,"stimulus/images/main/n110_F1.png",,,"294","266","295","313","71","377",NULL,NULL,NULL,NULL,"80","260","400","260","382","295",NULL,NULL,NULL,NULL,NULL
NULL,NULL,NULL,NULL,NULL,"free-sort","23","101994","0.0-7.0-14.0-0.0","4287323","B","2024/3/22 12:47:44","2024/3/22 12:51:28","4810",NULL,"MultiArrangementTask","Array","Array","Array","Main","B","44","72","香水","花束","2","良い香りがする","華やかだ",,"stimulus/images/main/n72_T.png",NULL,"stimulus/images/main/n72_F1.png","stimulus/images/main/n72_F2.png",,"66","243","102","291","328","486","47","299",NULL,NULL,"80","260","400","260","81","210","379","276",NULL,NULL,NULL
NULL,NULL,NULL,NULL,NULL,"free-sort","24","106081","0.0-7.0-15.0-0.0","4287323","B","2024/3/22 12:47:44","2024/3/22 12:51:28","4086",NULL,"MultiArrangementTask","Array","Array","Array","Main","B","35","73","運命","通り魔","2","予測できない","恐ろしい",,"stimulus/images/main/n73_T.png",NULL,"stimulus/images/main/n73_F1.png","stimulus/images/main/n73_F2.png",,"7","49","107","209","130","29","52","242",NULL,NULL,"80","260","400","260","395","168","400","302",NULL,NULL,NULL
NULL,NULL,NULL,NULL,NULL,"free-sort","25","111214","0.0-7.0-16.0-0.0","4287323","B","2024/3/22 12:47:44","2024/3/22 12:51:28","5132",NULL,"MultiArrangementTask","Array","Array","Array","Main","B","14","86","学校","工場","3","人がたくさんいる","画一的だ","生産する","stimulus/images/main/n86_T.png",NULL,"stimulus/images/main/n86_F1.png","stimulus/images/main/n86_F2.png","stimulus/images/main/n86_F3.png","330","472","14","234","120","474","323","178","8","513","80","260","400","260","97","232","95","327","390","254",NULL
NULL,NULL,NULL,NULL,NULL,"free-sort","26","116485","0.0-7.0-17.0-0.0","4287323","B","2024/3/22 12:47:44","2024/3/22 12:51:28","5270",NULL,"MultiArrangementTask","Array","Array","Array","Main","B","8","80","煙草","時限爆弾","3","寿命を縮める","危険だ","燃える","stimulus/images/main/n80_T.png",NULL,"stimulus/images/main/n80_F1.png","stimulus/images/main/n80_F2.png","stimulus/images/main/n80_F3.png","279","459","186","229","459","21","305","13","395","167","80","260","400","260","111","260","403","294","382","232",NULL
NULL,NULL,NULL,NULL,NULL,"free-sort","27","121359","0.0-7.0-18.0-0.0","4287323","B","2024/3/22 12:47:44","2024/3/22 12:51:28","4873",NULL,"MultiArrangementTask","Array","Array","Array","Main","B","3","39","研究","登山","3","険しい道のり","達成感がある","苦しい","stimulus/images/main/n39_T.png",NULL,"stimulus/images/main/n39_F1.png","stimulus/images/main/n39_F2.png","stimulus/images/main/n39_F3.png","446","41","466","240","327","348","269","64","132","393","80","260","400","260","88","321","421","312","408","347",NULL
NULL,NULL,NULL,NULL,NULL,"free-sort","28","125736","0.0-7.0-19.0-0.0","4287323","B","2024/3/22 12:47:44","2024/3/22 12:51:28","4376",NULL,"MultiArrangementTask","Array","Array","Array","Main","B","13","12","衝撃","電気","3","一瞬の出来事だ","突然来る","ビリビリする","stimulus/images/main/n12_T.png",NULL,"stimulus/images/main/n12_F1.png","stimulus/images/main/n12_F2.png","stimulus/images/main/n12_F3.png","417","242","35","518","345","13","23","74","244","17","80","260","400","260","97","307","108","206","373","228",NULL
NULL,NULL,NULL,NULL,NULL,"free-sort","29","128366","0.0-7.0-20.0-0.0","4287323","B","2024/3/22 12:47:44","2024/3/22 12:51:28","2629",NULL,"MultiArrangementTask","Array","Array","Array","Main","B","19","9","子供","天使","1","かわいい",,,"stimulus/images/main/n9_T.png",NULL,"stimulus/images/main/n9_F1.png",,,"469","137","411","94","60","376",NULL,NULL,NULL,NULL,"80","260","400","260","76","298",NULL,NULL,NULL,NULL,NULL
NULL,NULL,NULL,NULL,NULL,"free-sort","30","133587","0.0-7.0-21.0-0.0","4287323","B","2024/3/22 12:47:44","2024/3/22 12:51:28","5220",NULL,"MultiArrangementTask","Array","Array","Array","Main","B","7","88","批判","メス","3","人を傷つける","鋭い","痛いところをつく","stimulus/images/main/n88_T.png",NULL,"stimulus/images/main/n88_F1.png","stimulus/images/main/n88_F2.png","stimulus/images/main/n88_F3.png","180","501","443","146","361","424","474","296","269","345","80","260","400","260","397","341","83","294","388","315",NULL
NULL,NULL,NULL,NULL,NULL,"free-sort","31","137818","0.0-7.0-22.0-0.0","4287323","B","2024/3/22 12:47:44","2024/3/22 12:51:28","4230",NULL,"MultiArrangementTask","Array","Array","Array","Main","B","41","2","笑顔","花","2","美しい","明るい",,"stimulus/images/main/n2_T.png",NULL,"stimulus/images/main/n2_F1.png","stimulus/images/main/n2_F2.png",,"272","441","84","12","14","351","226","430",NULL,NULL,"80","260","400","260","423","284","132","291",NULL,NULL,NULL
NULL,NULL,NULL,NULL,NULL,"free-sort","32","139879","0.0-7.0-23.0-0.0","4287323","B","2024/3/22 12:47:44","2024/3/22 12:51:28","2060",NULL,"MultiArrangementTask","Array","Array","Array","Main","B","30","32","審判","天秤","1","公平だ",,,"stimulus/images/main/n32_T.png",NULL,"stimulus/images/main/n32_F1.png",,,"426","46","414","132","305","114",NULL,NULL,NULL,NULL,"80","260","400","260","368","301",NULL,NULL,NULL,NULL,NULL
NULL,NULL,NULL,NULL,NULL,"free-sort","33","144198","0.0-7.0-24.0-0.0","4287323","B","2024/3/22 12:47:44","2024/3/22 12:51:28","4319",NULL,"MultiArrangementTask","Array","Array","Array","Main","B","6","14","暴動","嵐","3","激しい","人を巻き込む","突然起こる","stimulus/images/main/n14_T.png",NULL,"stimulus/images/main/n14_F1.png","stimulus/images/main/n14_F2.png","stimulus/images/main/n14_F3.png","323","461","58","16","286","440","60","27","177","194","80","260","400","260","106","327","424","215","398","316",NULL
NULL,NULL,NULL,NULL,NULL,"free-sort","34","147086","0.0-7.0-25.0-0.0","4287323","B","2024/3/22 12:47:44","2024/3/22 12:51:28","2887",NULL,"MultiArrangementTask","Array","Array","Array","Main","B","38","5","激怒","噴火","2","突然起こる","勢いが激しい",,"stimulus/images/main/n5_T.png",NULL,"stimulus/images/main/n5_F1.png","stimulus/images/main/n5_F2.png",,"256","171","411","360","475","107","432","445",NULL,NULL,"80","260","400","260","405","324","418","346",NULL,NULL,NULL
NULL,NULL,NULL,NULL,NULL,"free-sort","35","150104","0.0-7.0-26.0-0.0","4287323","B","2024/3/22 12:47:44","2024/3/22 12:51:28","3017",NULL,"MultiArrangementTask","Array","Array","Array","Main","B","40","117","唇（くちびる）","蛭（ひる）","2","気持ち悪い","分厚い",,"stimulus/images/main/n117_T.png",NULL,"stimulus/images/main/n117_F1.png","stimulus/images/main/n117_F2.png",,"320","517","248","133","355","152","185","440",NULL,NULL,"80","260","400","260","391","331","98","336",NULL,NULL,NULL
NULL,NULL,NULL,NULL,NULL,"free-sort","36","152615","0.0-7.0-27.0-0.0","4287323","B","2024/3/22 12:47:44","2024/3/22 12:51:28","2509",NULL,"MultiArrangementTask","Array","Array","Array","Main","B","16","16","楽譜","暗号","1","わからない",,,"stimulus/images/main/n16_T.png",NULL,"stimulus/images/main/n16_F1.png",,,"131","293","205","235","299","477",NULL,NULL,NULL,NULL,"80","260","400","260","104","300",NULL,NULL,NULL,NULL,NULL
NULL,NULL,NULL,NULL,NULL,"free-sort","37","157765","0.0-7.0-28.0-0.0","4287323","B","2024/3/22 12:47:44","2024/3/22 12:51:28","5149",NULL,"MultiArrangementTask","Array","Array","Array","Main","B","4","38","蝶","踊り子","3","美しい","舞う","華やかだ","stimulus/images/main/n38_T.png",NULL,"stimulus/images/main/n38_F1.png","stimulus/images/main/n38_F2.png","stimulus/images/main/n38_F3.png","129","195","474","348","441","334","176","465","243","467","80","260","400","260","116","293","85","296","444","297",NULL
NULL,NULL,NULL,NULL,NULL,"free-sort","38","161297","0.0-7.0-29.0-0.0","4287323","B","2024/3/22 12:47:44","2024/3/22 12:51:28","3531",NULL,"MultiArrangementTask","Array","Array","Array","Main","B","34","17","希望","灯火","2","消える","明るい",,"stimulus/images/main/n17_T.png",NULL,"stimulus/images/main/n17_F1.png","stimulus/images/main/n17_F2.png",,"386","182","170","196","366","358","278","322",NULL,NULL,"80","260","400","260","405","281","99","299",NULL,NULL,NULL
NULL,NULL,NULL,NULL,NULL,"free-sort","39","165222","0.0-7.0-30.0-0.0","4287323","B","2024/3/22 12:47:44","2024/3/22 12:51:28","3925",NULL,"MultiArrangementTask","Array","Array","Array","Main","B","25","77","山","王様","1","大きい",,,"stimulus/images/main/n77_T.png",NULL,"stimulus/images/main/n77_F1.png",,,"170","423","104","346","437","509",NULL,NULL,NULL,NULL,"80","260","400","260","81","273",NULL,NULL,NULL,NULL,NULL
NULL,NULL,NULL,NULL,NULL,"free-sort","40","167555","0.0-7.0-31.0-0.0","4287323","B","2024/3/22 12:47:44","2024/3/22 12:51:28","2332",NULL,"MultiArrangementTask","Array","Array","Array","Main","B","28","85","利息","年貢","1","払わなければならない",,,"stimulus/images/main/n85_T.png",NULL,"stimulus/images/main/n85_F1.png",,,"178","486","360","288","323","238",NULL,NULL,NULL,NULL,"80","260","400","260","89","281",NULL,NULL,NULL,NULL,NULL
NULL,NULL,NULL,NULL,NULL,"free-sort","41","171843","0.0-7.0-32.0-0.0","4287323","B","2024/3/22 12:47:44","2024/3/22 12:51:28","4288",NULL,"MultiArrangementTask","Array","Array","Array","Main","B","2","81","夕日","銅貨","3","丸い","輝いている","赤い","stimulus/images/main/n81_T.png",NULL,"stimulus/images/main/n81_F1.png","stimulus/images/main/n81_F2.png","stimulus/images/main/n81_F3.png","405","172","130","62","38","148","455","441","176","272","80","260","400","260","384","280","411","259","63","276",NULL
NULL,NULL,NULL,NULL,NULL,"free-sort","42","174966","0.0-7.0-33.0-0.0","4287323","B","2024/3/22 12:47:44","2024/3/22 12:51:28","3122",NULL,"MultiArrangementTask","Array","Array","Array","Main","B","20","96","柿","ちょうちん","1","丸い",,,"stimulus/images/main/n96_T.png",NULL,"stimulus/images/main/n96_F1.png",,,"404","180","117","329","27","189",NULL,NULL,NULL,NULL,"80","260","400","260","440","255",NULL,NULL,NULL,NULL,NULL
NULL,NULL,NULL,NULL,NULL,"free-sort","43","178282","0.0-7.0-34.0-0.0","4287323","B","2024/3/22 12:47:44","2024/3/22 12:51:28","3315",NULL,"MultiArrangementTask","Array","Array","Array","Main","B","32","20","不安","濃霧（のうむ）","2","先が見えない","晴れない",,"stimulus/images/main/n20_T.png",NULL,"stimulus/images/main/n20_F1.png","stimulus/images/main/n20_F2.png",,"66","470","129","254","126","49","55","439",NULL,NULL,"80","260","400","260","119","262","369","251",NULL,NULL,NULL
NULL,NULL,NULL,NULL,NULL,"free-sort","44","183018","0.0-7.0-35.0-0.0","4287323","B","2024/3/22 12:47:44","2024/3/22 12:51:28","4735",NULL,"MultiArrangementTask","Array","Array","Array","Main","B","10","4","つらら","水晶細工","3","美しい","透明だ","繊細だ","stimulus/images/main/n4_T.png",NULL,"stimulus/images/main/n4_F1.png","stimulus/images/main/n4_F2.png","stimulus/images/main/n4_F3.png","391","390","176","398","20","102","222","147","457","316","80","260","400","260","400","248","63","315","442","286",NULL
NULL,NULL,NULL,NULL,NULL,"free-sort","45","187097","0.0-7.0-36.0-0.0","4287323","B","2024/3/22 12:47:44","2024/3/22 12:51:28","4078",NULL,"MultiArrangementTask","Array","Array","Array","Main","B","24","62","微風","吐息","1","優しい",,,"stimulus/images/main/n62_T.png",NULL,"stimulus/images/main/n62_F1.png",,,"324","310","446","131","459","149",NULL,NULL,NULL,NULL,"80","260","400","260","389","261",NULL,NULL,NULL,NULL,NULL
NULL,NULL,NULL,NULL,NULL,"free-sort","46","192376","0.0-7.0-37.0-0.0","4287323","B","2024/3/22 12:47:44","2024/3/22 12:51:28","5278",NULL,"MultiArrangementTask","Array","Array","Array","Main","B","33","55","理論","建物","2","積み重ねる","組み立てる",,"stimulus/images/main/n55_T.png",NULL,"stimulus/images/main/n55_F1.png","stimulus/images/main/n55_F2.png",,"52","161","331","312","296","81","16","162",NULL,NULL,"80","260","400","260","70","277","403","268",NULL,NULL,NULL
NULL,NULL,NULL,NULL,NULL,"free-sort","47","194886","0.0-7.0-38.0-0.0","4287323","B","2024/3/22 12:47:44","2024/3/22 12:51:28","2509",NULL,"MultiArrangementTask","Array","Array","Array","Main","B","22","61","疑惑","腫瘍（しゅよう）","1","ふくれあがる",,,"stimulus/images/main/n61_T.png",NULL,"stimulus/images/main/n61_F1.png",,,"132","486","10","186","378","121",NULL,NULL,NULL,NULL,"80","260","400","260","31","285",NULL,NULL,NULL,NULL,NULL
NULL,NULL,NULL,NULL,NULL,"free-sort","48","199340","0.0-7.0-39.0-0.0","4287323","B","2024/3/22 12:47:44","2024/3/22 12:51:28","4454",NULL,"MultiArrangementTask","Array","Array","Array","Main","B","15","74","子猫","王女","3","かわいい","大切にされている","わがままだ","stimulus/images/main/n74_T.png",NULL,"stimulus/images/main/n74_F1.png","stimulus/images/main/n74_F2.png","stimulus/images/main/n74_F3.png","459","497","42","70","431","84","365","395","21","381","80","260","400","260","92","287","123","319","407","287",NULL
NULL,NULL,NULL,NULL,NULL,"free-sort","49","201828","0.0-7.0-40.0-0.0","4287323","B","2024/3/22 12:47:44","2024/3/22 12:51:28","2486",NULL,"MultiArrangementTask","Array","Array","Array","Main","B","21","58","デモ","雪崩（なだれ）","1","止められない",,,"stimulus/images/main/n58_T.png",NULL,"stimulus/images/main/n58_F1.png",,,"142","501","220","450","291","457",NULL,NULL,NULL,NULL,"80","260","400","260","369","288",NULL,NULL,NULL,NULL,NULL
NULL,NULL,NULL,NULL,NULL,"free-sort","50","207644","0.0-7.0-41.0-0.0","4287323","B","2024/3/22 12:47:44","2024/3/22 12:51:28","5816",NULL,"MultiArrangementTask","Array","Array","Array","Main","B","1","91","皮肉","短刀","3","人を傷つける","鋭い","心に刺さる","stimulus/images/main/n91_T.png",NULL,"stimulus/images/main/n91_F1.png","stimulus/images/main/n91_F2.png","stimulus/images/main/n91_F3.png","54","282","255","147","171","263","90","424","382","349","80","260","400","260","405","279","108","284","77","286",NULL
NULL,NULL,NULL,NULL,NULL,"free-sort","51","212326","0.0-7.0-42.0-0.0","4287323","B","2024/3/22 12:47:44","2024/3/22 12:51:28","4681",NULL,"MultiArrangementTask","Array","Array","Array","Main","B","11","48","雨雲","薄墨","3","灰色だ","暗い","黒い","stimulus/images/main/n48_T.png",NULL,"stimulus/images/main/n48_F1.png","stimulus/images/main/n48_F2.png","stimulus/images/main/n48_F3.png","211","310","273","177","432","416","29","446","379","53","80","260","400","260","122","288","416","255","393","258",NULL
NULL,NULL,NULL,NULL,NULL,"free-sort","52","217587","0.0-7.0-43.0-0.0","4287323","B","2024/3/22 12:47:44","2024/3/22 12:51:28","5261",NULL,"MultiArrangementTask","Array","Array","Array","Main","B","12","105","建物","角砂糖","3","脆（もろ）い","四角い","白い","stimulus/images/main/n105_T.png",NULL,"stimulus/images/main/n105_F1.png","stimulus/images/main/n105_F2.png","stimulus/images/main/n105_F3.png","265","433","369","116","5","12","53","150","318","383","80","260","400","260","66","253","364","254","404","277",NULL
NULL,NULL,NULL,NULL,NULL,"free-sort","53","220121","0.0-7.0-44.0-0.0","4287323","B","2024/3/22 12:47:44","2024/3/22 12:51:28","2533",NULL,"MultiArrangementTask","Array","Array","Array","Main","B","18","75","空","鏡","1","澄（す）んでいる",,,"stimulus/images/main/n75_T.png",NULL,"stimulus/images/main/n75_F1.png",,,"433","113","433","62","108","177",NULL,NULL,NULL,NULL,"80","260","400","260","124","272",NULL,NULL,NULL,NULL,NULL
NULL,NULL,NULL,NULL,NULL,"html-keyboard-response","54","223463","0.0-8.0","4287323","B","2024/3/22 12:47:44","2024/3/22 12:51:28","3341"," ","debrief",NULL,NULL,NULL,NULL,NULL,NULL,NULL,NULL,NULL,NULL,NULL,NULL,NULL,NULL,NULL,NULL,NULL,NULL,NULL,NULL,NULL,NULL,NULL,NULL,NULL,NULL,NULL,NULL,NULL,NULL,NULL,NULL,NULL,NULL,NULL,NULL,NULL,NULL,"<p style='text-algin:left'>これで実験は終了です。お疲れ様でした。</p><p style='text-algin:left'>スペースキーを押して次の実験に遷移するのをお待ちください。</p>"
"1",,"Array","Array","Array","preload","0","2","0.0-0.0","603644","B","2024/3/22 12:48:31","2024/3/22 12:57:03",NULL,NULL,NULL,NULL,NULL,NULL,NULL,NULL,NULL,NULL,NULL,NULL,NULL,NULL,NULL,NULL,NULL,NULL,NULL,NULL,NULL,NULL,NULL,NULL,NULL,NULL,NULL,NULL,NULL,NULL,NULL,NULL,NULL,NULL,NULL,NULL,NULL,NULL,NULL,NULL,NULL,NULL
"1",NULL,NULL,NULL,NULL,"fullscreen","1","3205","0.0-1.0","603644","B","2024/3/22 12:48:31","2024/3/22 12:57:03",NULL,NULL,NULL,NULL,NULL,NULL,NULL,NULL,NULL,NULL,NULL,NULL,NULL,NULL,NULL,NULL,NULL,NULL,NULL,NULL,NULL,NULL,NULL,NULL,NULL,NULL,NULL,NULL,NULL,NULL,NULL,NULL,NULL,NULL,NULL,NULL,NULL,NULL,NULL,NULL,NULL,NULL
NULL,NULL,NULL,NULL,NULL,"survey-html-form","2","9224","0.0-2.0","603644","B","2024/3/22 12:48:31","2024/3/22 12:57:03","6018","Array","instruction_1a",NULL,NULL,NULL,NULL,NULL,NULL,NULL,NULL,NULL,NULL,NULL,NULL,NULL,NULL,NULL,NULL,NULL,NULL,NULL,NULL,NULL,NULL,NULL,NULL,NULL,NULL,NULL,NULL,NULL,NULL,NULL,NULL,NULL,NULL,NULL,NULL,NULL,NULL,NULL
NULL,NULL,NULL,NULL,NULL,"survey-html-form","3","32966","0.0-3.0","603644","B","2024/3/22 12:48:31","2024/3/22 12:57:03","23741","Array","instruction_1b",NULL,NULL,NULL,NULL,NULL,NULL,NULL,NULL,NULL,NULL,NULL,NULL,NULL,NULL,NULL,NULL,NULL,NULL,NULL,NULL,NULL,NULL,NULL,NULL,NULL,NULL,NULL,NULL,NULL,NULL,NULL,NULL,NULL,NULL,NULL,NULL,NULL,NULL,NULL
NULL,NULL,NULL,NULL,NULL,"survey-html-form","4","57930","0.0-4.0","603644","B","2024/3/22 12:48:31","2024/3/22 12:57:03","24963","Array","instruction_1c",NULL,NULL,NULL,NULL,NULL,NULL,NULL,NULL,NULL,NULL,NULL,NULL,NULL,NULL,NULL,NULL,NULL,NULL,NULL,NULL,NULL,NULL,NULL,NULL,NULL,NULL,NULL,NULL,NULL,NULL,NULL,NULL,NULL,NULL,NULL,NULL,NULL,NULL,NULL
NULL,NULL,NULL,NULL,NULL,"free-sort","5","68464","0.0-5.0-0.0-0.0","603644","B","2024/3/22 12:48:31","2024/3/22 12:57:03","10533",NULL,"MultiArrangementTask","Array","Array","Array","Practice","P","P1","E06","幸福","黄金","3","大切だ","価値がある","輝かしい","stimulus/images/practice/e06_T.png",NULL,"stimulus/images/practice/e06_F1.png","stimulus/images/practice/e06_F2.png","stimulus/images/practice/e06_F3.png","324","83","433","503","361","484","389","201","177","10","80","260","400","260","230","258","389","201","392","321",NULL
NULL,NULL,NULL,NULL,NULL,"free-sort","6","79018","0.0-5.0-1.0-0.0","603644","B","2024/3/22 12:48:31","2024/3/22 12:57:03","10553",NULL,"MultiArrangementTask","Array","Array","Array","Practice","P","P2","E13","弾丸","ロケット","1","速い",,,"stimulus/images/practice/e13_T.png",NULL,"stimulus/images/practice/e13_F1.png",,,"149","56","121","378","4","105",NULL,NULL,NULL,NULL,"80","260","400","260","240","261",NULL,NULL,NULL,NULL,NULL
NULL,NULL,NULL,NULL,NULL,"free-sort","7","86306","0.0-5.0-2.0-0.0","603644","B","2024/3/22 12:48:31","2024/3/22 12:57:03","7288",NULL,"MultiArrangementTask","Array","Array","Array","Practice","P","P3","E48","結婚","冷蔵庫","2","物が詰まる","冷やす",,"stimulus/images/practice/e48_T.png",NULL,"stimulus/images/practice/e48_F1.png","stimulus/images/practice/e48_F2.png",,"280","317","447","75","293","333","367","81",NULL,NULL,"80","260","400","260","76","218","404","217",NULL,NULL,NULL
NULL,NULL,NULL,NULL,NULL,"survey-html-form","8","146978","0.0-6.0","603644","B","2024/3/22 12:48:31","2024/3/22 12:57:03","60671","Array","instruction_1d",NULL,NULL,NULL,NULL,NULL,NULL,NULL,NULL,NULL,NULL,NULL,NULL,NULL,NULL,NULL,NULL,NULL,NULL,NULL,NULL,NULL,NULL,NULL,NULL,NULL,NULL,NULL,NULL,NULL,NULL,NULL,NULL,NULL,NULL,NULL,NULL,NULL,NULL,NULL
NULL,NULL,NULL,NULL,NULL,"free-sort","9","168165","0.0-7.0-0.0-0.0","603644","B","2024/3/22 12:48:31","2024/3/22 12:57:03","21185",NULL,"MultiArrangementTask","Array","Array","Array","Main","B","13","12","衝撃","電気","3","一瞬の出来事だ","突然来る","ビリビリする","stimulus/images/main/n12_T.png",NULL,"stimulus/images/main/n12_F1.png","stimulus/images/main/n12_F2.png","stimulus/images/main/n12_F3.png","34","458","370","395","35","365","142","341","382","510","80","260","400","260","81","320","76","206","403","205",NULL
NULL,NULL,NULL,NULL,NULL,"free-sort","10","172542","0.0-7.0-1.0-0.0","603644","B","2024/3/22 12:48:31","2024/3/22 12:57:03","4377",NULL,"MultiArrangementTask","Array","Array","Array","Main","B","30","32","審判","天秤","1","公平だ",,,"stimulus/images/main/n32_T.png",NULL,"stimulus/images/main/n32_F1.png",,,"47","416","349","57","430","121",NULL,NULL,NULL,NULL,"80","260","400","260","193","261",NULL,NULL,NULL,NULL,NULL
NULL,NULL,NULL,NULL,NULL,"free-sort","11","179199","0.0-7.0-2.0-0.0","603644","B","2024/3/22 12:48:31","2024/3/22 12:57:03","6655",NULL,"MultiArrangementTask","Array","Array","Array","Main","B","42","19","心臓","時計","2","一定のリズムを刻む","正確だ",,"stimulus/images/main/n19_T.png",NULL,"stimulus/images/main/n19_F1.png","stimulus/images/main/n19_F2.png",,"117","363","32","145","317","117","103","417",NULL,NULL,"80","260","400","260","238","253","399","215",NULL,NULL,NULL
NULL,NULL,NULL,NULL,NULL,"free-sort","12","189822","0.0-7.0-3.0-0.0","603644","B","2024/3/22 12:48:31","2024/3/22 12:57:03","10623",NULL,"MultiArrangementTask","Array","Array","Array","Main","B","43","119","麦畑","海","2","波打つ","広い",,"stimulus/images/main/n119_T.png",NULL,"stimulus/images/main/n119_F1.png","stimulus/images/main/n119_F2.png",,"239","123","109","348","178","3","75","245",NULL,NULL,"80","260","400","260","410","208","301","262",NULL,NULL,NULL
NULL,NULL,NULL,NULL,NULL,"free-sort","13","196562","0.0-7.0-4.0-0.0","603644","B","2024/3/22 12:48:31","2024/3/22 12:57:03","6739",NULL,"MultiArrangementTask","Array","Array","Array","Main","B","21","58","デモ","雪崩（なだれ）","1","止められない",,,"stimulus/images/main/n58_T.png",NULL,"stimulus/images/main/n58_F1.png",,,"6","39","182","473","48","180",NULL,NULL,NULL,NULL,"80","260","400","260","268","273",NULL,NULL,NULL,NULL,NULL
NULL,NULL,NULL,NULL,NULL,"free-sort","14","200693","0.0-7.0-5.0-0.0","603644","B","2024/3/22 12:48:31","2024/3/22 12:57:03","4129",NULL,"MultiArrangementTask","Array","Array","Array","Main","B","24","62","微風","吐息","1","優しい",,,"stimulus/images/main/n62_T.png",NULL,"stimulus/images/main/n62_F1.png",,,"107","116","245","272","425","61",NULL,NULL,NULL,NULL,"80","260","400","260","289","264",NULL,NULL,NULL,NULL,NULL
NULL,NULL,NULL,NULL,NULL,"free-sort","15","204463","0.0-7.0-6.0-0.0","603644","B","2024/3/22 12:48:31","2024/3/22 12:57:03","3769",NULL,"MultiArrangementTask","Array","Array","Array","Main","B","18","75","空","鏡","1","澄（す）んでいる",,,"stimulus/images/main/n75_T.png",NULL,"stimulus/images/main/n75_F1.png",,,"232","340","190","30","371","7",NULL,NULL,NULL,NULL,"80","260","400","260","201","264",NULL,NULL,NULL,NULL,NULL
NULL,NULL,NULL,NULL,NULL,"free-sort","16","210949","0.0-7.0-7.0-0.0","603644","B","2024/3/22 12:48:31","2024/3/22 12:57:03","6485",NULL,"MultiArrangementTask","Array","Array","Array","Main","B","39","99","眼","湖","2","美しい","澄（す）んでいる",,"stimulus/images/main/n99_T.png",NULL,"stimulus/images/main/n99_F1.png","stimulus/images/main/n99_F2.png",,"322","223","406","47","250","73","187","85",NULL,NULL,"80","260","400","260","395","210","298","275",NULL,NULL,NULL
NULL,NULL,NULL,NULL,NULL,"free-sort","17","218685","0.0-7.0-8.0-0.0","603644","B","2024/3/22 12:48:31","2024/3/22 12:57:03","7736",NULL,"MultiArrangementTask","Array","Array","Array","Main","B","34","17","希望","灯火","2","消える","明るい",,"stimulus/images/main/n17_T.png",NULL,"stimulus/images/main/n17_F1.png","stimulus/images/main/n17_F2.png",,"225","369","85","200","37","468","235","168",NULL,NULL,"80","260","400","260","332","211","238","261",NULL,NULL,NULL
NULL,NULL,NULL,NULL,NULL,"free-sort","18","223289","0.0-7.0-9.0-0.0","603644","B","2024/3/22 12:48:31","2024/3/22 12:57:03","4603",NULL,"MultiArrangementTask","Array","Array","Array","Main","B","28","85","利息","年貢","1","払わなければならない",,,"stimulus/images/main/n85_T.png",NULL,"stimulus/images/main/n85_F1.png",,,"348","412","454","147","337","326",NULL,NULL,NULL,NULL,"80","260","400","260","229","277",NULL,NULL,NULL,NULL,NULL
NULL,NULL,NULL,NULL,NULL,"free-sort","19","231025","0.0-7.0-10.0-0.0","603644","B","2024/3/22 12:48:31","2024/3/22 12:57:03","7735",NULL,"MultiArrangementTask","Array","Array","Array","Main","B","40","117","唇（くちびる）","蛭（ひる）","2","気持ち悪い","分厚い",,"stimulus/images/main/n117_T.png",NULL,"stimulus/images/main/n117_F1.png","stimulus/images/main/n117_F2.png",,"2","430","108","456","323","209","93","76",NULL,NULL,"80","260","400","260","420","213","197","260",NULL,NULL,NULL
NULL,NULL,NULL,NULL,NULL,"free-sort","20","240545","0.0-7.0-11.0-0.0","603644","B","2024/3/22 12:48:31","2024/3/22 12:57:03","9519",NULL,"MultiArrangementTask","Array","Array","Array","Main","B","38","5","激怒","噴火","2","突然起こる","勢いが激しい",,"stimulus/images/main/n5_T.png",NULL,"stimulus/images/main/n5_F1.png","stimulus/images/main/n5_F2.png",,"34","10","71","511","83","65","387","249",NULL,NULL,"80","260","400","260","410","208","305","258",NULL,NULL,NULL
NULL,NULL,NULL,NULL,NULL,"free-sort","21","245643","0.0-7.0-12.0-0.0","603644","B","2024/3/22 12:48:31","2024/3/22 12:57:03","5097",NULL,"MultiArrangementTask","Array","Array","Array","Main","B","22","61","疑惑","腫瘍（しゅよう）","1","ふくれあがる",,,"stimulus/images/main/n61_T.png",NULL,"stimulus/images/main/n61_F1.png",,,"103","191","412","439","231","9",NULL,NULL,NULL,NULL,"80","260","400","260","230","258",NULL,NULL,NULL,NULL,NULL
NULL,NULL,NULL,NULL,NULL,"free-sort","22","260383","0.0-7.0-13.0-0.0","603644","B","2024/3/22 12:48:31","2024/3/22 12:57:03","14739",NULL,"MultiArrangementTask","Array","Array","Array","Main","B","8","80","煙草","時限爆弾","3","寿命を縮める","危険だ","燃える","stimulus/images/main/n80_T.png",NULL,"stimulus/images/main/n80_F1.png","stimulus/images/main/n80_F2.png","stimulus/images/main/n80_F3.png","202","283","106","88","88","55","304","467","21","213","80","260","400","260","81","191","262","318","278","265",NULL
NULL,NULL,NULL,NULL,NULL,"free-sort","23","274671","0.0-7.0-14.0-0.0","603644","B","2024/3/22 12:48:31","2024/3/22 12:57:03","14287",NULL,"MultiArrangementTask","Array","Array","Array","Main","B","12","105","建物","角砂糖","3","脆（もろ）い","四角い","白い","stimulus/images/main/n105_T.png",NULL,"stimulus/images/main/n105_F1.png","stimulus/images/main/n105_F2.png","stimulus/images/main/n105_F3.png","290","518","297","152","180","222","26","486","18","53","80","260","400","260","357","205","299","264","326","311",NULL
NULL,NULL,NULL,NULL,NULL,"free-sort","24","281621","0.0-7.0-15.0-0.0","603644","B","2024/3/22 12:48:31","2024/3/22 12:57:03","6949",NULL,"MultiArrangementTask","Array","Array","Array","Main","B","37","59","霧（きり）","ベール","2","白い","覆う",,"stimulus/images/main/n59_T.png",NULL,"stimulus/images/main/n59_F1.png","stimulus/images/main/n59_F2.png",,"181","116","90","125","223","77","242","342",NULL,NULL,"80","260","400","260","233","216","244","261",NULL,NULL,NULL
NULL,NULL,NULL,NULL,NULL,"free-sort","25","290775","0.0-7.0-16.0-0.0","603644","B","2024/3/22 12:48:31","2024/3/22 12:57:03","9153",NULL,"MultiArrangementTask","Array","Array","Array","Main","B","44","72","香水","花束","2","良い香りがする","華やかだ",,"stimulus/images/main/n72_T.png",NULL,"stimulus/images/main/n72_F1.png","stimulus/images/main/n72_F2.png",,"32","109","229","263","419","128","209","483",NULL,NULL,"80","260","400","260","184","260","389","217",NULL,NULL,NULL
NULL,NULL,NULL,NULL,NULL,"free-sort","26","303249","0.0-7.0-17.0-0.0","603644","B","2024/3/22 12:48:31","2024/3/22 12:57:03","12473",NULL,"MultiArrangementTask","Array","Array","Array","Main","B","14","86","学校","工場","3","人がたくさんいる","画一的だ","生産する","stimulus/images/main/n86_T.png",NULL,"stimulus/images/main/n86_F1.png","stimulus/images/main/n86_F2.png","stimulus/images/main/n86_F3.png","377","143","185","488","365","7","103","14","186","37","80","260","400","260","290","276","361","209","405","310",NULL
NULL,NULL,NULL,NULL,NULL,"free-sort","27","314291","0.0-7.0-18.0-0.0","603644","B","2024/3/22 12:48:31","2024/3/22 12:57:03","11042",NULL,"MultiArrangementTask","Array","Array","Array","Main","B","9","26","真珠","水滴","3","美しい","丸い","透き通っている","stimulus/images/main/n26_T.png",NULL,"stimulus/images/main/n26_F1.png","stimulus/images/main/n26_F2.png","stimulus/images/main/n26_F3.png","50","180","472","52","299","355","55","339","451","89","80","260","400","260","187","284","170","225","374","240",NULL
NULL,NULL,NULL,NULL,NULL,"free-sort","28","322201","0.0-7.0-19.0-0.0","603644","B","2024/3/22 12:48:31","2024/3/22 12:57:03","7909",NULL,"MultiArrangementTask","Array","Array","Array","Main","B","23","45","教育","階段","1","段階を踏んでいく",,,"stimulus/images/main/n45_T.png",NULL,"stimulus/images/main/n45_F1.png",,,"317","335","198","324","292","351",NULL,NULL,NULL,NULL,"80","260","400","260","231","273",NULL,NULL,NULL,NULL,NULL
NULL,NULL,NULL,NULL,NULL,"free-sort","29","330673","0.0-7.0-20.0-0.0","603644","B","2024/3/22 12:48:31","2024/3/22 12:57:03","8471",NULL,"MultiArrangementTask","Array","Array","Array","Main","B","45","95","礼儀","檻（おり）","2","堅苦しい","縛られる",,"stimulus/images/main/n95_T.png",NULL,"stimulus/images/main/n95_F1.png","stimulus/images/main/n95_F2.png",,"88","207","465","265","408","445","213","495",NULL,NULL,"80","260","400","260","141","214","403","213",NULL,NULL,NULL
NULL,NULL,NULL,NULL,NULL,"free-sort","30","339631","0.0-7.0-21.0-0.0","603644","B","2024/3/22 12:48:31","2024/3/22 12:57:03","8957",NULL,"MultiArrangementTask","Array","Array","Array","Main","B","2","81","夕日","銅貨","3","丸い","輝いている","赤い","stimulus/images/main/n81_T.png",NULL,"stimulus/images/main/n81_F1.png","stimulus/images/main/n81_F2.png","stimulus/images/main/n81_F3.png","370","225","231","39","341","205","198","237","183","501","80","260","400","260","237","210","190","250","194","302",NULL
NULL,NULL,NULL,NULL,NULL,"free-sort","31","351161","0.0-7.0-22.0-0.0","603644","B","2024/3/22 12:48:31","2024/3/22 12:57:03","11529",NULL,"MultiArrangementTask","Array","Array","Array","Main","B","7","88","批判","メス","3","人を傷つける","鋭い","痛いところをつく","stimulus/images/main/n88_T.png",NULL,"stimulus/images/main/n88_F1.png","stimulus/images/main/n88_F2.png","stimulus/images/main/n88_F3.png","377","140","448","466","463","28","301","165","323","114","80","260","400","260","361","281","389","221","108","204",NULL
NULL,NULL,NULL,NULL,NULL,"free-sort","32","355705","0.0-7.0-23.0-0.0","603644","B","2024/3/22 12:48:31","2024/3/22 12:57:03","4543",NULL,"MultiArrangementTask","Array","Array","Array","Main","B","16","16","楽譜","暗号","1","わからない",,,"stimulus/images/main/n16_T.png",NULL,"stimulus/images/main/n16_F1.png",,,"165","91","326","357","106","402",NULL,NULL,NULL,NULL,"80","260","400","260","245","261",NULL,NULL,NULL,NULL,NULL
NULL,NULL,NULL,NULL,NULL,"free-sort","33","361687","0.0-7.0-24.0-0.0","603644","B","2024/3/22 12:48:31","2024/3/22 12:57:03","5982",NULL,"MultiArrangementTask","Array","Array","Array","Main","B","26","52","仕事","牢獄（ろうごく）","1","つらい",,,"stimulus/images/main/n52_T.png",NULL,"stimulus/images/main/n52_F1.png",,,"151","199","212","452","53","506",NULL,NULL,NULL,NULL,"80","260","400","260","197","263",NULL,NULL,NULL,NULL,NULL
NULL,NULL,NULL,NULL,NULL,"free-sort","34","368487","0.0-7.0-25.0-0.0","603644","B","2024/3/22 12:48:31","2024/3/22 12:57:03","6799",NULL,"MultiArrangementTask","Array","Array","Array","Main","B","31","112","雑巾","亀","2","臭い","汚い",,"stimulus/images/main/n112_T.png",NULL,"stimulus/images/main/n112_F1.png","stimulus/images/main/n112_F2.png",,"419","279","136","451","251","314","363","190",NULL,NULL,"80","260","400","260","195","264","195","217",NULL,NULL,NULL
NULL,NULL,NULL,NULL,NULL,"free-sort","35","379275","0.0-7.0-26.0-0.0","603644","B","2024/3/22 12:48:31","2024/3/22 12:57:03","10787",NULL,"MultiArrangementTask","Array","Array","Array","Main","B","10","4","つらら","水晶細工","3","美しい","透明だ","繊細だ","stimulus/images/main/n4_T.png",NULL,"stimulus/images/main/n4_F1.png","stimulus/images/main/n4_F2.png","stimulus/images/main/n4_F3.png","403","279","464","4","148","192","443","459","370","331","80","260","400","260","321","218","232","265","402","309",NULL
NULL,NULL,NULL,NULL,NULL,"free-sort","36","387799","0.0-7.0-27.0-0.0","603644","B","2024/3/22 12:48:31","2024/3/22 12:57:03","8523",NULL,"MultiArrangementTask","Array","Array","Array","Main","B","35","73","運命","通り魔","2","予測できない","恐ろしい",,"stimulus/images/main/n73_T.png",NULL,"stimulus/images/main/n73_F1.png","stimulus/images/main/n73_F2.png",,"210","40","28","424","415","329","24","372",NULL,NULL,"80","260","400","260","353","278","398","218",NULL,NULL,NULL
NULL,NULL,NULL,NULL,NULL,"free-sort","37","393967","0.0-7.0-28.0-0.0","603644","B","2024/3/22 12:48:31","2024/3/22 12:57:03","6167",NULL,"MultiArrangementTask","Array","Array","Array","Main","B","36","33","沈黙","海底","2","静かだ","暗い",,"stimulus/images/main/n33_T.png",NULL,"stimulus/images/main/n33_F1.png","stimulus/images/main/n33_F2.png",,"439","449","3","288","276","359","183","443",NULL,NULL,"80","260","400","260","239","263","386","221",NULL,NULL,NULL
NULL,NULL,NULL,NULL,NULL,"free-sort","38","403617","0.0-7.0-29.0-0.0","603644","B","2024/3/22 12:48:31","2024/3/22 12:57:03","9649",NULL,"MultiArrangementTask","Array","Array","Array","Main","B","6","14","暴動","嵐","3","激しい","人を巻き込む","突然起こる","stimulus/images/main/n14_T.png",NULL,"stimulus/images/main/n14_F1.png","stimulus/images/main/n14_F2.png","stimulus/images/main/n14_F3.png","101","166","242","511","159","235","143","171","44","54","80","260","400","260","245","267","243","204","292","321",NULL
NULL,NULL,NULL,NULL,NULL,"free-sort","39","416729","0.0-7.0-30.0-0.0","603644","B","2024/3/22 12:48:31","2024/3/22 12:57:03","13112",NULL,"MultiArrangementTask","Array","Array","Array","Main","B","5","63","時間","洪水","3","止められない","流れる","逆らえない","stimulus/images/main/n63_T.png",NULL,"stimulus/images/main/n63_F1.png","stimulus/images/main/n63_F2.png","stimulus/images/main/n63_F3.png","300","433","371","225","192","238","116","422","222","139","80","260","400","260","216","268","297","302","248","214",NULL
NULL,NULL,NULL,NULL,NULL,"free-sort","40","420709","0.0-7.0-31.0-0.0","603644","B","2024/3/22 12:48:31","2024/3/22 12:57:03","3979",NULL,"MultiArrangementTask","Array","Array","Array","Main","B","29","110","椿（つばき）","ひとだま","1","丸い",,,"stimulus/images/main/n110_T.png",NULL,"stimulus/images/main/n110_F1.png",,,"184","155","339","361","369","359",NULL,NULL,NULL,NULL,"80","260","400","260","292","264",NULL,NULL,NULL,NULL,NULL
NULL,NULL,NULL,NULL,NULL,"free-sort","41","428243","0.0-7.0-32.0-0.0","603644","B","2024/3/22 12:48:31","2024/3/22 12:57:03","7533",NULL,"MultiArrangementTask","Array","Array","Array","Main","B","33","55","理論","建物","2","積み重ねる","組み立てる",,"stimulus/images/main/n55_T.png",NULL,"stimulus/images/main/n55_F1.png","stimulus/images/main/n55_F2.png",,"134","176","237","199","110","263","456","371",NULL,NULL,"80","260","400","260","132","215","297","262",NULL,NULL,NULL
NULL,NULL,NULL,NULL,NULL,"free-sort","42","431849","0.0-7.0-33.0-0.0","603644","B","2024/3/22 12:48:31","2024/3/22 12:57:03","3605",NULL,"MultiArrangementTask","Array","Array","Array","Main","B","25","77","山","王様","1","大きい",,,"stimulus/images/main/n77_T.png",NULL,"stimulus/images/main/n77_F1.png",,,"265","104","114","254","434","27",NULL,NULL,NULL,NULL,"80","260","400","260","82","213",NULL,NULL,NULL,NULL,NULL
NULL,NULL,NULL,NULL,NULL,"free-sort","43","440846","0.0-7.0-34.0-0.0","603644","B","2024/3/22 12:48:31","2024/3/22 12:57:03","8995",NULL,"MultiArrangementTask","Array","Array","Array","Main","B","11","48","雨雲","薄墨","3","灰色だ","暗い","黒い","stimulus/images/main/n48_T.png",NULL,"stimulus/images/main/n48_F1.png","stimulus/images/main/n48_F2.png","stimulus/images/main/n48_F3.png","116","373","408","426","337","329","218","214","159","106","80","260","400","260","267","302","312","257","318","210",NULL
NULL,NULL,NULL,NULL,NULL,"free-sort","44","451409","0.0-7.0-35.0-0.0","603644","B","2024/3/22 12:48:31","2024/3/22 12:57:03","10563",NULL,"MultiArrangementTask","Array","Array","Array","Main","B","1","91","皮肉","短刀","3","人を傷つける","鋭い","心に刺さる","stimulus/images/main/n91_T.png",NULL,"stimulus/images/main/n91_F1.png","stimulus/images/main/n91_F2.png","stimulus/images/main/n91_F3.png","224","199","328","475","340","191","292","474","276","508","80","260","400","260","343","278","390","212","119","214",NULL
NULL,NULL,NULL,NULL,NULL,"free-sort","45","455479","0.0-7.0-36.0-0.0","603644","B","2024/3/22 12:48:31","2024/3/22 12:57:03","4069",NULL,"MultiArrangementTask","Array","Array","Array","Main","B","17","83","煙突","石碑","1","まっすぐ立っている",,,"stimulus/images/main/n83_T.png",NULL,"stimulus/images/main/n83_F1.png",,,"8","192","461","300","81","77",NULL,NULL,NULL,NULL,"80","260","400","260","197","261",NULL,NULL,NULL,NULL,NULL
NULL,NULL,NULL,NULL,NULL,"free-sort","46","460621","0.0-7.0-37.0-0.0","603644","B","2024/3/22 12:48:31","2024/3/22 12:57:03","5142",NULL,"MultiArrangementTask","Array","Array","Array","Main","B","27","89","愛","季節","1","移り変わる",,,"stimulus/images/main/n89_T.png",NULL,"stimulus/images/main/n89_F1.png",,,"268","265","452","190","49","303",NULL,NULL,NULL,NULL,"80","260","400","260","305","219",NULL,NULL,NULL,NULL,NULL
NULL,NULL,NULL,NULL,NULL,"free-sort","47","469401","0.0-7.0-38.0-0.0","603644","B","2024/3/22 12:48:31","2024/3/22 12:57:03","8779",NULL,"MultiArrangementTask","Array","Array","Array","Main","B","15","74","子猫","王女","3","かわいい","大切にされている","わがままだ","stimulus/images/main/n74_T.png",NULL,"stimulus/images/main/n74_F1.png","stimulus/images/main/n74_F2.png","stimulus/images/main/n74_F3.png","354","421","421","350","164","20","82","516","150","210","80","260","400","260","240","280","238","339","284","231",NULL
NULL,NULL,NULL,NULL,NULL,"free-sort","48","476335","0.0-7.0-39.0-0.0","603644","B","2024/3/22 12:48:31","2024/3/22 12:57:03","6933",NULL,"MultiArrangementTask","Array","Array","Array","Main","B","41","2","笑顔","花","2","美しい","明るい",,"stimulus/images/main/n2_T.png",NULL,"stimulus/images/main/n2_F1.png","stimulus/images/main/n2_F2.png",,"254","444","89","350","474","369","179","81",NULL,NULL,"80","260","400","260","352","307","159","206",NULL,NULL,NULL
NULL,NULL,NULL,NULL,NULL,"free-sort","49","483615","0.0-7.0-40.0-0.0","603644","B","2024/3/22 12:48:31","2024/3/22 12:57:03","7279",NULL,"MultiArrangementTask","Array","Array","Array","Main","B","4","38","蝶","踊り子","3","美しい","舞う","華やかだ","stimulus/images/main/n38_T.png",NULL,"stimulus/images/main/n38_F1.png","stimulus/images/main/n38_F2.png","stimulus/images/main/n38_F3.png","174","106","317","484","392","135","352","107","78","325","80","260","400","260","300","181","327","224","348","308",NULL
NULL,NULL,NULL,NULL,NULL,"free-sort","50","495153","0.0-7.0-41.0-0.0","603644","B","2024/3/22 12:48:31","2024/3/22 12:57:03","11537",NULL,"MultiArrangementTask","Array","Array","Array","Main","B","3","39","研究","登山","3","険しい道のり","達成感がある","苦しい","stimulus/images/main/n39_T.png",NULL,"stimulus/images/main/n39_F1.png","stimulus/images/main/n39_F2.png","stimulus/images/main/n39_F3.png","458","219","218","278","150","334","446","105","430","296","80","260","400","260","244","258","256","180","299","204",NULL
NULL,NULL,NULL,NULL,NULL,"free-sort","51","499262","0.0-7.0-42.0-0.0","603644","B","2024/3/22 12:48:31","2024/3/22 12:57:03","4107",NULL,"MultiArrangementTask","Array","Array","Array","Main","B","19","9","子供","天使","1","かわいい",,,"stimulus/images/main/n9_T.png",NULL,"stimulus/images/main/n9_F1.png",,,"278","103","243","138","321","5",NULL,NULL,NULL,NULL,"80","260","400","260","191","262",NULL,NULL,NULL,NULL,NULL
NULL,NULL,NULL,NULL,NULL,"free-sort","52","503917","0.0-7.0-43.0-0.0","603644","B","2024/3/22 12:48:31","2024/3/22 12:57:03","4653",NULL,"MultiArrangementTask","Array","Array","Array","Main","B","20","96","柿","ちょうちん","1","丸い",,,"stimulus/images/main/n96_T.png",NULL,"stimulus/images/main/n96_F1.png",,,"347","280","204","420","174","397",NULL,NULL,NULL,NULL,"80","260","400","260","179","265",NULL,NULL,NULL,NULL,NULL
NULL,NULL,NULL,NULL,NULL,"free-sort","53","510124","0.0-7.0-44.0-0.0","603644","B","2024/3/22 12:48:31","2024/3/22 12:57:03","6207",NULL,"MultiArrangementTask","Array","Array","Array","Main","B","32","20","不安","濃霧（のうむ）","2","先が見えない","晴れない",,"stimulus/images/main/n20_T.png",NULL,"stimulus/images/main/n20_F1.png","stimulus/images/main/n20_F2.png",,"375","55","266","207","435","332","57","21",NULL,NULL,"80","260","400","260","230","200","215","263",NULL,NULL,NULL
NULL,NULL,NULL,NULL,NULL,"html-keyboard-response","54","512209","0.0-8.0","603644","B","2024/3/22 12:48:31","2024/3/22 12:57:03","2083"," ","debrief",NULL,NULL,NULL,NULL,NULL,NULL,NULL,NULL,NULL,NULL,NULL,NULL,NULL,NULL,NULL,NULL,NULL,NULL,NULL,NULL,NULL,NULL,NULL,NULL,NULL,NULL,NULL,NULL,NULL,NULL,NULL,NULL,NULL,NULL,NULL,NULL,NULL,NULL,"<p style='text-algin:left'>これで実験は終了です。お疲れ様でした。</p><p style='text-algin:left'>スペースキーを押して次の実験に遷移するのをお待ちください。</p>"
"1",,"Array","Array","Array","preload","0","5","0.0-0.0","2613017","A","2024/3/22 12:50:26","2024/3/22 12:57:25",NULL,NULL,NULL,NULL,NULL,NULL,NULL,NULL,NULL,NULL,NULL,NULL,NULL,NULL,NULL,NULL,NULL,NULL,NULL,NULL,NULL,NULL,NULL,NULL,NULL,NULL,NULL,NULL,NULL,NULL,NULL,NULL,NULL,NULL,NULL,NULL,NULL,NULL,NULL,NULL,NULL,NULL
"1",NULL,NULL,NULL,NULL,"fullscreen","1","4294","0.0-1.0","2613017","A","2024/3/22 12:50:26","2024/3/22 12:57:25",NULL,NULL,NULL,NULL,NULL,NULL,NULL,NULL,NULL,NULL,NULL,NULL,NULL,NULL,NULL,NULL,NULL,NULL,NULL,NULL,NULL,NULL,NULL,NULL,NULL,NULL,NULL,NULL,NULL,NULL,NULL,NULL,NULL,NULL,NULL,NULL,NULL,NULL,NULL,NULL,NULL,NULL
NULL,NULL,NULL,NULL,NULL,"survey-html-form","2","12809","0.0-2.0","2613017","A","2024/3/22 12:50:26","2024/3/22 12:57:25","8513","Array","instruction_1a",NULL,NULL,NULL,NULL,NULL,NULL,NULL,NULL,NULL,NULL,NULL,NULL,NULL,NULL,NULL,NULL,NULL,NULL,NULL,NULL,NULL,NULL,NULL,NULL,NULL,NULL,NULL,NULL,NULL,NULL,NULL,NULL,NULL,NULL,NULL,NULL,NULL,NULL,NULL
NULL,NULL,NULL,NULL,NULL,"survey-html-form","3","46813","0.0-3.0","2613017","A","2024/3/22 12:50:26","2024/3/22 12:57:25","34003","Array","instruction_1b",NULL,NULL,NULL,NULL,NULL,NULL,NULL,NULL,NULL,NULL,NULL,NULL,NULL,NULL,NULL,NULL,NULL,NULL,NULL,NULL,NULL,NULL,NULL,NULL,NULL,NULL,NULL,NULL,NULL,NULL,NULL,NULL,NULL,NULL,NULL,NULL,NULL,NULL,NULL
NULL,NULL,NULL,NULL,NULL,"survey-html-form","4","60293","0.0-4.0","2613017","A","2024/3/22 12:50:26","2024/3/22 12:57:25","13478","Array","instruction_1c",NULL,NULL,NULL,NULL,NULL,NULL,NULL,NULL,NULL,NULL,NULL,NULL,NULL,NULL,NULL,NULL,NULL,NULL,NULL,NULL,NULL,NULL,NULL,NULL,NULL,NULL,NULL,NULL,NULL,NULL,NULL,NULL,NULL,NULL,NULL,NULL,NULL,NULL,NULL
NULL,NULL,NULL,NULL,NULL,"free-sort","5","78989","0.0-5.0-0.0-0.0","2613017","A","2024/3/22 12:50:26","2024/3/22 12:57:25","18693",NULL,"MultiArrangementTask","Array","Array","Array","Practice","P","P1","E06","幸福","黄金","3","大切だ","価値がある","輝かしい","stimulus/images/practice/e06_T.png",NULL,"stimulus/images/practice/e06_F1.png","stimulus/images/practice/e06_F2.png","stimulus/images/practice/e06_F3.png","143","442","453","429","430","160","227","137","194","348","80","260","400","260","150","204","387","209","396","313",NULL
NULL,NULL,NULL,NULL,NULL,"free-sort","6","86519","0.0-5.0-1.0-0.0","2613017","A","2024/3/22 12:50:26","2024/3/22 12:57:25","7528",NULL,"MultiArrangementTask","Array","Array","Array","Practice","P","P2","E13","弾丸","ロケット","1","速い",,,"stimulus/images/practice/e13_T.png",NULL,"stimulus/images/practice/e13_F1.png",,,"217","503","252","300","3","197",NULL,NULL,NULL,NULL,"80","260","400","260","248","261",NULL,NULL,NULL,NULL,NULL
NULL,NULL,NULL,NULL,NULL,"free-sort","7","91478","0.0-5.0-2.0-0.0","2613017","A","2024/3/22 12:50:26","2024/3/22 12:57:25","4959",NULL,"MultiArrangementTask","Array","Array","Array","Practice","P","P3","E48","結婚","冷蔵庫","2","物が詰まる","冷やす",,"stimulus/images/practice/e48_T.png",NULL,"stimulus/images/practice/e48_F1.png","stimulus/images/practice/e48_F2.png",,"227","442","429","5","274","444","313","189",NULL,NULL,"80","260","400","260","103","313","399","218",NULL,NULL,NULL
NULL,NULL,NULL,NULL,NULL,"survey-html-form","8","112003","0.0-6.0","2613017","A","2024/3/22 12:50:26","2024/3/22 12:57:25","20523","Array","instruction_1d",NULL,NULL,NULL,NULL,NULL,NULL,NULL,NULL,NULL,NULL,NULL,NULL,NULL,NULL,NULL,NULL,NULL,NULL,NULL,NULL,NULL,NULL,NULL,NULL,NULL,NULL,NULL,NULL,NULL,NULL,NULL,NULL,NULL,NULL,NULL,NULL,NULL,NULL,NULL
NULL,NULL,NULL,NULL,NULL,"free-sort","9","118803","0.0-7.0-0.0-0.0","2613017","A","2024/3/22 12:50:26","2024/3/22 12:57:25","6799",NULL,"MultiArrangementTask","Array","Array","Array","Main","A","22","61","疑惑","腫瘍（しゅよう）","2","ふくれあがる","大きくなる",,"stimulus/images/main/n61_T.png",NULL,"stimulus/images/main/n61_F1.png","stimulus/images/main/n61_F2.png",,"429","282","328","417","219","451","217","447",NULL,NULL,"80","260","400","260","236","318","231","265",NULL,NULL,NULL
NULL,NULL,NULL,NULL,NULL,"free-sort","10","134060","0.0-7.0-1.0-0.0","2613017","A","2024/3/22 12:50:26","2024/3/22 12:57:25","15257",NULL,"MultiArrangementTask","Array","Array","Array","Main","A","39","99","眼","湖","3","美しい","澄（す）んでいる","光を反射する","stimulus/images/main/n99_T.png",NULL,"stimulus/images/main/n99_F1.png","stimulus/images/main/n99_F2.png","stimulus/images/main/n99_F3.png","290","309","382","147","30","293","235","495","46","100","80","260","400","260","264","298","288","353","295","243",NULL
NULL,NULL,NULL,NULL,NULL,"free-sort","11","140808","0.0-7.0-2.0-0.0","2613017","A","2024/3/22 12:50:26","2024/3/22 12:57:25","6747",NULL,"MultiArrangementTask","Array","Array","Array","Main","A","36","33","沈黙","海底","3","静かだ","暗い","深い","stimulus/images/main/n33_T.png",NULL,"stimulus/images/main/n33_F1.png","stimulus/images/main/n33_F2.png","stimulus/images/main/n33_F3.png","10","9","30","109","109","51","89","395","215","335","80","260","400","260","100","216","421","349","402","305",NULL
NULL,NULL,NULL,NULL,NULL,"free-sort","12","146322","0.0-7.0-3.0-0.0","2613017","A","2024/3/22 12:50:26","2024/3/22 12:57:25","5513",NULL,"MultiArrangementTask","Array","Array","Array","Main","A","21","58","デモ","雪崩（なだれ）","2","止められない","勢いがある",,"stimulus/images/main/n58_T.png",NULL,"stimulus/images/main/n58_F1.png","stimulus/images/main/n58_F2.png",,"318","112","402","387","98","14","254","283",NULL,NULL,"80","260","400","260","230","272","352","322",NULL,NULL,NULL
NULL,NULL,NULL,NULL,NULL,"free-sort","13","157072","0.0-7.0-4.0-0.0","2613017","A","2024/3/22 12:50:26","2024/3/22 12:57:25","10749",NULL,"MultiArrangementTask","Array","Array","Array","Main","A","37","59","霧（きり）","ベール","3","白い","覆う","前が見えない","stimulus/images/main/n59_T.png",NULL,"stimulus/images/main/n59_F1.png","stimulus/images/main/n59_F2.png","stimulus/images/main/n59_F3.png","132","348","424","358","410","297","372","39","427","124","80","260","400","260","339","287","299","244","190","261",NULL
NULL,NULL,NULL,NULL,NULL,"free-sort","14","160952","0.0-7.0-5.0-0.0","2613017","A","2024/3/22 12:50:26","2024/3/22 12:57:25","3879",NULL,"MultiArrangementTask","Array","Array","Array","Main","A","10","4","つらら","水晶細工","1","美しい",,,"stimulus/images/main/n4_T.png",NULL,"stimulus/images/main/n4_F1.png",,,"58","212","370","233","97","220",NULL,NULL,NULL,NULL,"80","260","400","260","249","266",NULL,NULL,NULL,NULL,NULL
NULL,NULL,NULL,NULL,NULL,"free-sort","15","164914","0.0-7.0-6.0-0.0","2613017","A","2024/3/22 12:50:26","2024/3/22 12:57:25","3961",NULL,"MultiArrangementTask","Array","Array","Array","Main","A","9","26","真珠","水滴","1","美しい",,,"stimulus/images/main/n26_T.png",NULL,"stimulus/images/main/n26_F1.png",,,"4","125","396","456","361","399",NULL,NULL,NULL,NULL,"80","260","400","260","211","267",NULL,NULL,NULL,NULL,NULL
NULL,NULL,NULL,NULL,NULL,"free-sort","16","169356","0.0-7.0-7.0-0.0","2613017","A","2024/3/22 12:50:26","2024/3/22 12:57:25","4441",NULL,"MultiArrangementTask","Array","Array","Array","Main","A","16","16","楽譜","暗号","2","わからない","読めない",,"stimulus/images/main/n16_T.png",NULL,"stimulus/images/main/n16_F1.png","stimulus/images/main/n16_F2.png",,"283","26","470","39","344","153","248","208",NULL,NULL,"80","260","400","260","255","227","253","265",NULL,NULL,NULL
NULL,NULL,NULL,NULL,NULL,"free-sort","17","172438","0.0-7.0-8.0-0.0","2613017","A","2024/3/22 12:50:26","2024/3/22 12:57:25","3081",NULL,"MultiArrangementTask","Array","Array","Array","Main","A","5","63","時間","洪水","1","止められない",,,"stimulus/images/main/n63_T.png",NULL,"stimulus/images/main/n63_F1.png",,,"342","184","105","330","111","340",NULL,NULL,NULL,NULL,"80","260","400","260","250","280",NULL,NULL,NULL,NULL,NULL
NULL,NULL,NULL,NULL,NULL,"free-sort","18","177632","0.0-7.0-9.0-0.0","2613017","A","2024/3/22 12:50:26","2024/3/22 12:57:25","5193",NULL,"MultiArrangementTask","Array","Array","Array","Main","A","11","48","雨雲","薄墨","1","灰色だ",,,"stimulus/images/main/n48_T.png",NULL,"stimulus/images/main/n48_F1.png",,,"14","159","113","406","261","215",NULL,NULL,NULL,NULL,"80","260","400","260","219","266",NULL,NULL,NULL,NULL,NULL
NULL,NULL,NULL,NULL,NULL,"free-sort","19","185493","0.0-7.0-10.0-0.0","2613017","A","2024/3/22 12:50:26","2024/3/22 12:57:25","7859",NULL,"MultiArrangementTask","Array","Array","Array","Main","A","34","17","希望","灯火","3","消える","明るい","温かい","stimulus/images/main/n17_T.png",NULL,"stimulus/images/main/n17_F1.png","stimulus/images/main/n17_F2.png","stimulus/images/main/n17_F3.png","391","210","462","323","297","60","473","484","95","367","80","260","400","260","311","266","133","216","95","306",NULL
NULL,NULL,NULL,NULL,NULL,"free-sort","20","194371","0.0-7.0-11.0-0.0","2613017","A","2024/3/22 12:50:26","2024/3/22 12:57:25","8877",NULL,"MultiArrangementTask","Array","Array","Array","Main","A","20","96","柿","ちょうちん","2","丸い","赤い",,"stimulus/images/main/n96_T.png",NULL,"stimulus/images/main/n96_F1.png","stimulus/images/main/n96_F2.png",,"440","3","160","418","459","149","444","172",NULL,NULL,"80","260","400","260","206","309","246","264",NULL,NULL,NULL
NULL,NULL,NULL,NULL,NULL,"free-sort","21","203185","0.0-7.0-12.0-0.0","2613017","A","2024/3/22 12:50:26","2024/3/22 12:57:25","8813",NULL,"MultiArrangementTask","Array","Array","Array","Main","A","32","20","不安","濃霧（のうむ）","3","先が見えない","晴れない","暗い","stimulus/images/main/n20_T.png",NULL,"stimulus/images/main/n20_F1.png","stimulus/images/main/n20_F2.png","stimulus/images/main/n20_F3.png","362","474","473","344","46","106","290","104","478","9","80","260","400","260","238","259","243","318","270","210",NULL
NULL,NULL,NULL,NULL,NULL,"free-sort","22","208959","0.0-7.0-13.0-0.0","2613017","A","2024/3/22 12:50:26","2024/3/22 12:57:25","5773",NULL,"MultiArrangementTask","Array","Array","Array","Main","A","31","112","雑巾","亀","3","臭い","汚い","固い","stimulus/images/main/n112_T.png",NULL,"stimulus/images/main/n112_F1.png","stimulus/images/main/n112_F2.png","stimulus/images/main/n112_F3.png","138","63","206","62","276","113","322","172","408","406","80","260","400","260","136","304","107","218","410","316",NULL
NULL,NULL,NULL,NULL,NULL,"free-sort","23","216148","0.0-7.0-14.0-0.0","2613017","A","2024/3/22 12:50:26","2024/3/22 12:57:25","7188",NULL,"MultiArrangementTask","Array","Array","Array","Main","A","35","73","運命","通り魔","3","予測できない","恐ろしい","突然襲いかかる","stimulus/images/main/n73_T.png",NULL,"stimulus/images/main/n73_F1.png","stimulus/images/main/n73_F2.png","stimulus/images/main/n73_F3.png","371","364","205","171","191","84","186","442","431","182","80","260","400","260","216","253","349","308","405","205",NULL
NULL,NULL,NULL,NULL,NULL,"free-sort","24","221637","0.0-7.0-15.0-0.0","2613017","A","2024/3/22 12:50:26","2024/3/22 12:57:25","5487",NULL,"MultiArrangementTask","Array","Array","Array","Main","A","8","80","煙草","時限爆弾","1","寿命を縮める",,,"stimulus/images/main/n80_T.png",NULL,"stimulus/images/main/n80_F1.png",,,"384","170","370","238","216","304",NULL,NULL,NULL,NULL,"80","260","400","260","210","265",NULL,NULL,NULL,NULL,NULL
NULL,NULL,NULL,NULL,NULL,"free-sort","25","227698","0.0-7.0-16.0-0.0","2613017","A","2024/3/22 12:50:26","2024/3/22 12:57:25","6061",NULL,"MultiArrangementTask","Array","Array","Array","Main","A","30","32","審判","天秤","2","公平だ","平等だ",,"stimulus/images/main/n32_T.png",NULL,"stimulus/images/main/n32_F1.png","stimulus/images/main/n32_F2.png",,"329","162","410","169","138","258","372","105",NULL,NULL,"80","260","400","260","173","270","221","227",NULL,NULL,NULL
NULL,NULL,NULL,NULL,NULL,"free-sort","26","231192","0.0-7.0-17.0-0.0","2613017","A","2024/3/22 12:50:26","2024/3/22 12:57:25","3493",NULL,"MultiArrangementTask","Array","Array","Array","Main","A","12","105","建物","角砂糖","1","脆（もろ）い",,,"stimulus/images/main/n105_T.png",NULL,"stimulus/images/main/n105_F1.png",,,"324","22","172","393","81","111",NULL,NULL,NULL,NULL,"80","260","400","260","255","263",NULL,NULL,NULL,NULL,NULL
NULL,NULL,NULL,NULL,NULL,"free-sort","27","235927","0.0-7.0-18.0-0.0","2613017","A","2024/3/22 12:50:26","2024/3/22 12:57:25","4733",NULL,"MultiArrangementTask","Array","Array","Array","Main","A","18","75","空","鏡","2","澄（す）んでいる","きれいだ",,"stimulus/images/main/n75_T.png",NULL,"stimulus/images/main/n75_F1.png","stimulus/images/main/n75_F2.png",,"210","100","7","491","239","55","62","36",NULL,NULL,"80","260","400","260","238","266","118","211",NULL,NULL,NULL
NULL,NULL,NULL,NULL,NULL,"free-sort","28","239913","0.0-7.0-19.0-0.0","2613017","A","2024/3/22 12:50:26","2024/3/22 12:57:25","3985",NULL,"MultiArrangementTask","Array","Array","Array","Main","A","23","45","教育","階段","2","段階を踏んでいく","積み重ねる",,"stimulus/images/main/n45_T.png",NULL,"stimulus/images/main/n45_F1.png","stimulus/images/main/n45_F2.png",,"251","39","445","450","86","67","460","341",NULL,NULL,"80","260","400","260","262","252","267","307",NULL,NULL,NULL
NULL,NULL,NULL,NULL,NULL,"free-sort","29","247398","0.0-7.0-20.0-0.0","2613017","A","2024/3/22 12:50:26","2024/3/22 12:57:25","7484",NULL,"MultiArrangementTask","Array","Array","Array","Main","A","24","62","微風","吐息","2","優しい","暖かい",,"stimulus/images/main/n62_T.png",NULL,"stimulus/images/main/n62_F1.png","stimulus/images/main/n62_F2.png",,"322","327","384","392","405","498","111","33",NULL,NULL,"80","260","400","260","256","296","188","232",NULL,NULL,NULL
NULL,NULL,NULL,NULL,NULL,"free-sort","30","253540","0.0-7.0-21.0-0.0","2613017","A","2024/3/22 12:50:26","2024/3/22 12:57:25","6141",NULL,"MultiArrangementTask","Array","Array","Array","Main","A","38","5","激怒","噴火","3","突然起こる","勢いが激しい","止まらない","stimulus/images/main/n5_T.png",NULL,"stimulus/images/main/n5_F1.png","stimulus/images/main/n5_F2.png","stimulus/images/main/n5_F3.png","2","113","126","164","112","257","368","308","16","401","80","260","400","260","142","304","245","224","235","337",NULL
NULL,NULL,NULL,NULL,NULL,"free-sort","31","259108","0.0-7.0-22.0-0.0","2613017","A","2024/3/22 12:50:26","2024/3/22 12:57:25","5567",NULL,"MultiArrangementTask","Array","Array","Array","Main","A","19","9","子供","天使","2","かわいい","無垢だ",,"stimulus/images/main/n9_T.png",NULL,"stimulus/images/main/n9_F1.png","stimulus/images/main/n9_F2.png",,"433","145","67","109","151","303","113","78",NULL,NULL,"80","260","400","260","221","285","169","247",NULL,NULL,NULL
NULL,NULL,NULL,NULL,NULL,"free-sort","32","265900","0.0-7.0-23.0-0.0","2613017","A","2024/3/22 12:50:26","2024/3/22 12:57:25","6791",NULL,"MultiArrangementTask","Array","Array","Array","Main","A","40","117","唇（くちびる）","蛭（ひる）","3","気持ち悪い","分厚い","湿っている","stimulus/images/main/n117_T.png",NULL,"stimulus/images/main/n117_F1.png","stimulus/images/main/n117_F2.png","stimulus/images/main/n117_F3.png","475","342","301","67","179","291","436","279","423","15","80","260","400","260","395","309","210","286","207","230",NULL
NULL,NULL,NULL,NULL,NULL,"free-sort","33","270460","0.0-7.0-24.0-0.0","2613017","A","2024/3/22 12:50:26","2024/3/22 12:57:25","4559",NULL,"MultiArrangementTask","Array","Array","Array","Main","A","29","110","椿（つばき）","ひとだま","2","丸い","赤い",,"stimulus/images/main/n110_T.png",NULL,"stimulus/images/main/n110_F1.png","stimulus/images/main/n110_F2.png",,"1","488","309","129","340","24","170","478",NULL,NULL,"80","260","400","260","313","269","190","266",NULL,NULL,NULL
NULL,NULL,NULL,NULL,NULL,"free-sort","34","273215","0.0-7.0-25.0-0.0","2613017","A","2024/3/22 12:50:26","2024/3/22 12:57:25","2753",NULL,"MultiArrangementTask","Array","Array","Array","Main","A","2","81","夕日","銅貨","1","丸い",,,"stimulus/images/main/n81_T.png",NULL,"stimulus/images/main/n81_F1.png",,,"258","483","341","399","254","264",NULL,NULL,NULL,NULL,"80","260","400","260","232","264",NULL,NULL,NULL,NULL,NULL
NULL,NULL,NULL,NULL,NULL,"free-sort","35","277659","0.0-7.0-26.0-0.0","2613017","A","2024/3/22 12:50:26","2024/3/22 12:57:25","4443",NULL,"MultiArrangementTask","Array","Array","Array","Main","A","17","83","煙突","石碑","2","まっすぐ立っている","堅い",,"stimulus/images/main/n83_T.png",NULL,"stimulus/images/main/n83_F1.png","stimulus/images/main/n83_F2.png",,"377","327","261","70","125","506","380","195",NULL,NULL,"80","260","400","260","240","268","374","228",NULL,NULL,NULL
NULL,NULL,NULL,NULL,NULL,"free-sort","36","282788","0.0-7.0-27.0-0.0","2613017","A","2024/3/22 12:50:26","2024/3/22 12:57:25","5128",NULL,"MultiArrangementTask","Array","Array","Array","Main","A","27","89","愛","季節","2","移り変わる","繰り返す",,"stimulus/images/main/n89_T.png",NULL,"stimulus/images/main/n89_F1.png","stimulus/images/main/n89_F2.png",,"330","177","205","180","22","120","477","150",NULL,NULL,"80","260","400","260","247","276","360","228",NULL,NULL,NULL
NULL,NULL,NULL,NULL,NULL,"free-sort","37","286650","0.0-7.0-28.0-0.0","2613017","A","2024/3/22 12:50:26","2024/3/22 12:57:25","3861",NULL,"MultiArrangementTask","Array","Array","Array","Main","A","13","12","衝撃","電気","1","一瞬の出来事だ",,,"stimulus/images/main/n12_T.png",NULL,"stimulus/images/main/n12_F1.png",,,"325","158","121","438","401","360",NULL,NULL,NULL,NULL,"80","260","400","260","215","267",NULL,NULL,NULL,NULL,NULL
NULL,NULL,NULL,NULL,NULL,"free-sort","38","293856","0.0-7.0-29.0-0.0","2613017","A","2024/3/22 12:50:26","2024/3/22 12:57:25","7205",NULL,"MultiArrangementTask","Array","Array","Array","Main","A","43","119","麦畑","海","3","波打つ","広い","風になびく","stimulus/images/main/n119_T.png",NULL,"stimulus/images/main/n119_F1.png","stimulus/images/main/n119_F2.png","stimulus/images/main/n119_F3.png","170","160","249","31","199","305","44","147","254","65","80","260","400","260","377","309","243","284","193","223",NULL
NULL,NULL,NULL,NULL,NULL,"free-sort","39","299108","0.0-7.0-30.0-0.0","2613017","A","2024/3/22 12:50:26","2024/3/22 12:57:25","5251",NULL,"MultiArrangementTask","Array","Array","Array","Main","A","26","52","仕事","牢獄（ろうごく）","2","つらい","逃れられない",,"stimulus/images/main/n52_T.png",NULL,"stimulus/images/main/n52_F1.png","stimulus/images/main/n52_F2.png",,"190","55","78","483","189","480","45","252",NULL,NULL,"80","260","400","260","260","309","243","257",NULL,NULL,NULL
NULL,NULL,NULL,NULL,NULL,"free-sort","40","304739","0.0-7.0-31.0-0.0","2613017","A","2024/3/22 12:50:26","2024/3/22 12:57:25","5630",NULL,"MultiArrangementTask","Array","Array","Array","Main","A","25","77","山","王様","2","大きい","動かない",,"stimulus/images/main/n77_T.png",NULL,"stimulus/images/main/n77_F1.png","stimulus/images/main/n77_F2.png",,"351","25","24","26","101","113","142","231",NULL,NULL,"80","260","400","260","138","222","225","271",NULL,NULL,NULL
NULL,NULL,NULL,NULL,NULL,"free-sort","41","308885","0.0-7.0-32.0-0.0","2613017","A","2024/3/22 12:50:26","2024/3/22 12:57:25","4144",NULL,"MultiArrangementTask","Array","Array","Array","Main","A","7","88","批判","メス","1","人を傷つける",,,"stimulus/images/main/n88_T.png",NULL,"stimulus/images/main/n88_F1.png",,,"321","7","96","132","314","422",NULL,NULL,NULL,NULL,"80","260","400","260","336","263",NULL,NULL,NULL,NULL,NULL
NULL,NULL,NULL,NULL,NULL,"free-sort","42","323574","0.0-7.0-33.0-0.0","2613017","A","2024/3/22 12:50:26","2024/3/22 12:57:25","14688",NULL,"MultiArrangementTask","Array","Array","Array","Main","A","14","86","学校","工場","1","人がたくさんいる",,,"stimulus/images/main/n86_T.png",NULL,"stimulus/images/main/n86_F1.png",,,"274","190","300","255","118","146",NULL,NULL,NULL,NULL,"80","260","400","260","235","278",NULL,NULL,NULL,NULL,NULL
NULL,NULL,NULL,NULL,NULL,"free-sort","43","335797","0.0-7.0-34.0-0.0","2613017","A","2024/3/22 12:50:26","2024/3/22 12:57:25","12221",NULL,"MultiArrangementTask","Array","Array","Array","Main","A","41","2","笑顔","花","3","美しい","明るい","華やかだ","stimulus/images/main/n2_T.png",NULL,"stimulus/images/main/n2_F1.png","stimulus/images/main/n2_F2.png","stimulus/images/main/n2_F3.png","77","63","115","224","53","238","429","275","346","433","80","260","400","260","415","236","300","275","399","359",NULL
NULL,NULL,NULL,NULL,NULL,"free-sort","44","346417","0.0-7.0-35.0-0.0","2613017","A","2024/3/22 12:50:26","2024/3/22 12:57:25","10619",NULL,"MultiArrangementTask","Array","Array","Array","Main","A","44","72","香水","花束","3","良い香りがする","華やかだ","様々な香りがする","stimulus/images/main/n72_T.png",NULL,"stimulus/images/main/n72_F1.png","stimulus/images/main/n72_F2.png","stimulus/images/main/n72_F3.png","242","42","367","451","342","132","261","434","200","201","80","260","400","260","190","280","398","312","207","206",NULL
NULL,NULL,NULL,NULL,NULL,"free-sort","45","348685","0.0-7.0-36.0-0.0","2613017","A","2024/3/22 12:50:26","2024/3/22 12:57:25","2268",NULL,"MultiArrangementTask","Array","Array","Array","Main","A","4","38","蝶","踊り子","1","美しい",,,"stimulus/images/main/n38_T.png",NULL,"stimulus/images/main/n38_F1.png",,,"1","353","124","343","327","428",NULL,NULL,NULL,NULL,"80","260","400","260","250","279",NULL,NULL,NULL,NULL,NULL
NULL,NULL,NULL,NULL,NULL,"free-sort","46","351037","0.0-7.0-37.0-0.0","2613017","A","2024/3/22 12:50:26","2024/3/22 12:57:25","2351",NULL,"MultiArrangementTask","Array","Array","Array","Main","A","3","39","研究","登山","1","険しい道のり",,,"stimulus/images/main/n39_T.png",NULL,"stimulus/images/main/n39_F1.png",,,"301","415","263","235","448","345",NULL,NULL,NULL,NULL,"80","260","400","260","245","262",NULL,NULL,NULL,NULL,NULL
NULL,NULL,NULL,NULL,NULL,"free-sort","47","380324","0.0-7.0-38.0-0.0","2613017","A","2024/3/22 12:50:26","2024/3/22 12:57:25","29286",NULL,"MultiArrangementTask","Array","Array","Array","Main","A","45","95","礼儀","檻（おり）","3","堅苦しい","縛られる","厳しい","stimulus/images/main/n95_T.png",NULL,"stimulus/images/main/n95_F1.png","stimulus/images/main/n95_F2.png","stimulus/images/main/n95_F3.png","155","305","55","425","75","306","269","91","441","490","80","260","400","260","251","325","290","232","345","300",NULL
NULL,NULL,NULL,NULL,NULL,"free-sort","48","389366","0.0-7.0-39.0-0.0","2613017","A","2024/3/22 12:50:26","2024/3/22 12:57:25","9041",NULL,"MultiArrangementTask","Array","Array","Array","Main","A","42","19","心臓","時計","3","一定のリズムを刻む","正確だ","いつか止まる","stimulus/images/main/n19_T.png",NULL,"stimulus/images/main/n19_F1.png","stimulus/images/main/n19_F2.png","stimulus/images/main/n19_F3.png","337","266","364","155","25","191","412","51","314","398","80","260","400","260","224","257","366","202","188","316",NULL
NULL,NULL,NULL,NULL,NULL,"free-sort","49","400837","0.0-7.0-40.0-0.0","2613017","A","2024/3/22 12:50:26","2024/3/22 12:57:25","11469",NULL,"MultiArrangementTask","Array","Array","Array","Main","A","33","55","理論","建物","3","積み重ねる","組み立てる","崩れることがある","stimulus/images/main/n55_T.png",NULL,"stimulus/images/main/n55_F1.png","stimulus/images/main/n55_F2.png","stimulus/images/main/n55_F3.png","328","101","323","332","394","219","247","314","17","137","80","260","400","260","153","303","270","337","215","241",NULL
NULL,NULL,NULL,NULL,NULL,"free-sort","50","403748","0.0-7.0-41.0-0.0","2613017","A","2024/3/22 12:50:26","2024/3/22 12:57:25","2911",NULL,"MultiArrangementTask","Array","Array","Array","Main","A","15","74","子猫","王女","1","かわいい",,,"stimulus/images/main/n74_T.png",NULL,"stimulus/images/main/n74_F1.png",,,"72","121","255","263","426","36",NULL,NULL,NULL,NULL,"80","260","400","260","258","261",NULL,NULL,NULL,NULL,NULL
NULL,NULL,NULL,NULL,NULL,"free-sort","51","409740","0.0-7.0-42.0-0.0","2613017","A","2024/3/22 12:50:26","2024/3/22 12:57:25","5991",NULL,"MultiArrangementTask","Array","Array","Array","Main","A","28","85","利息","年貢","2","払わなければならない","定期的だ",,"stimulus/images/main/n85_T.png",NULL,"stimulus/images/main/n85_F1.png","stimulus/images/main/n85_F2.png",,"388","474","228","412","77","66","301","416",NULL,NULL,"80","260","400","260","245","326","247","265",NULL,NULL,NULL
NULL,NULL,NULL,NULL,NULL,"free-sort","52","413712","0.0-7.0-43.0-0.0","2613017","A","2024/3/22 12:50:26","2024/3/22 12:57:25","3971",NULL,"MultiArrangementTask","Array","Array","Array","Main","A","1","91","皮肉","短刀","1","人を傷つける",,,"stimulus/images/main/n91_T.png",NULL,"stimulus/images/main/n91_F1.png",,,"134","399","286","227","255","455",NULL,NULL,NULL,NULL,"80","260","400","260","254","270",NULL,NULL,NULL,NULL,NULL
NULL,NULL,NULL,NULL,NULL,"free-sort","53","416598","0.0-7.0-44.0-0.0","2613017","A","2024/3/22 12:50:26","2024/3/22 12:57:25","2885",NULL,"MultiArrangementTask","Array","Array","Array","Main","A","6","14","暴動","嵐","1","激しい",,,"stimulus/images/main/n14_T.png",NULL,"stimulus/images/main/n14_F1.png",,,"313","261","28","97","363","484",NULL,NULL,NULL,NULL,"80","260","400","260","226","265",NULL,NULL,NULL,NULL,NULL
NULL,NULL,NULL,NULL,NULL,"html-keyboard-response","54","418912","0.0-8.0","2613017","A","2024/3/22 12:50:26","2024/3/22 12:57:25","2310"," ","debrief",NULL,NULL,NULL,NULL,NULL,NULL,NULL,NULL,NULL,NULL,NULL,NULL,NULL,NULL,NULL,NULL,NULL,NULL,NULL,NULL,NULL,NULL,NULL,NULL,NULL,NULL,NULL,NULL,NULL,NULL,NULL,NULL,NULL,NULL,NULL,NULL,NULL,NULL,"<p style='text-algin:left'>これで実験は終了です。お疲れ様でした。</p><p style='text-algin:left'>スペースキーを押して次の実験に遷移するのをお待ちください。</p>"
"1",,"Array","Array","Array","preload","0","1","0.0-0.0","1791041","B","2024/3/22 12:51:29","2024/3/22 12:57:39",NULL,NULL,NULL,NULL,NULL,NULL,NULL,NULL,NULL,NULL,NULL,NULL,NULL,NULL,NULL,NULL,NULL,NULL,NULL,NULL,NULL,NULL,NULL,NULL,NULL,NULL,NULL,NULL,NULL,NULL,NULL,NULL,NULL,NULL,NULL,NULL,NULL,NULL,NULL,NULL,NULL,NULL
"1",NULL,NULL,NULL,NULL,"fullscreen","1","30079","0.0-1.0","1791041","B","2024/3/22 12:51:29","2024/3/22 12:57:39",NULL,NULL,NULL,NULL,NULL,NULL,NULL,NULL,NULL,NULL,NULL,NULL,NULL,NULL,NULL,NULL,NULL,NULL,NULL,NULL,NULL,NULL,NULL,NULL,NULL,NULL,NULL,NULL,NULL,NULL,NULL,NULL,NULL,NULL,NULL,NULL,NULL,NULL,NULL,NULL,NULL,NULL
NULL,NULL,NULL,NULL,NULL,"survey-html-form","2","33596","0.0-2.0","1791041","B","2024/3/22 12:51:29","2024/3/22 12:57:39","3517","Array","instruction_1a",NULL,NULL,NULL,NULL,NULL,NULL,NULL,NULL,NULL,NULL,NULL,NULL,NULL,NULL,NULL,NULL,NULL,NULL,NULL,NULL,NULL,NULL,NULL,NULL,NULL,NULL,NULL,NULL,NULL,NULL,NULL,NULL,NULL,NULL,NULL,NULL,NULL,NULL,NULL
NULL,NULL,NULL,NULL,NULL,"survey-html-form","3","51466","0.0-3.0","1791041","B","2024/3/22 12:51:29","2024/3/22 12:57:39","17869","Array","instruction_1b",NULL,NULL,NULL,NULL,NULL,NULL,NULL,NULL,NULL,NULL,NULL,NULL,NULL,NULL,NULL,NULL,NULL,NULL,NULL,NULL,NULL,NULL,NULL,NULL,NULL,NULL,NULL,NULL,NULL,NULL,NULL,NULL,NULL,NULL,NULL,NULL,NULL,NULL,NULL
NULL,NULL,NULL,NULL,NULL,"survey-html-form","4","63574","0.0-4.0","1791041","B","2024/3/22 12:51:29","2024/3/22 12:57:39","12107","Array","instruction_1c",NULL,NULL,NULL,NULL,NULL,NULL,NULL,NULL,NULL,NULL,NULL,NULL,NULL,NULL,NULL,NULL,NULL,NULL,NULL,NULL,NULL,NULL,NULL,NULL,NULL,NULL,NULL,NULL,NULL,NULL,NULL,NULL,NULL,NULL,NULL,NULL,NULL,NULL,NULL
NULL,NULL,NULL,NULL,NULL,"free-sort","5","76356","0.0-5.0-0.0-0.0","1791041","B","2024/3/22 12:51:29","2024/3/22 12:57:39","12781",NULL,"MultiArrangementTask","Array","Array","Array","Practice","P","P1","E06","幸福","黄金","3","大切だ","価値がある","輝かしい","stimulus/images/practice/e06_T.png",NULL,"stimulus/images/practice/e06_F1.png","stimulus/images/practice/e06_F2.png","stimulus/images/practice/e06_F3.png","150","266","367","66","14","454","342","439","477","84","80","260","400","260","232","266","320","299","322","214",NULL
NULL,NULL,NULL,NULL,NULL,"free-sort","6","80486","0.0-5.0-1.0-0.0","1791041","B","2024/3/22 12:51:29","2024/3/22 12:57:39","4129",NULL,"MultiArrangementTask","Array","Array","Array","Practice","P","P2","E13","弾丸","ロケット","1","速い",,,"stimulus/images/practice/e13_T.png",NULL,"stimulus/images/practice/e13_F1.png",,,"388","300","400","113","128","79",NULL,NULL,NULL,NULL,"80","260","400","260","238","264",NULL,NULL,NULL,NULL,NULL
NULL,NULL,NULL,NULL,NULL,"free-sort","7","85010","0.0-5.0-2.0-0.0","1791041","B","2024/3/22 12:51:29","2024/3/22 12:57:39","4523",NULL,"MultiArrangementTask","Array","Array","Array","Practice","P","P3","E48","結婚","冷蔵庫","2","物が詰まる","冷やす",,"stimulus/images/practice/e48_T.png",NULL,"stimulus/images/practice/e48_F1.png","stimulus/images/practice/e48_F2.png",,"55","160","303","388","310","263","309","228",NULL,NULL,"80","260","400","260","100","266","371","261",NULL,NULL,NULL
NULL,NULL,NULL,NULL,NULL,"survey-html-form","8","90804","0.0-6.0","1791041","B","2024/3/22 12:51:29","2024/3/22 12:57:39","5793","Array","instruction_1d",NULL,NULL,NULL,NULL,NULL,NULL,NULL,NULL,NULL,NULL,NULL,NULL,NULL,NULL,NULL,NULL,NULL,NULL,NULL,NULL,NULL,NULL,NULL,NULL,NULL,NULL,NULL,NULL,NULL,NULL,NULL,NULL,NULL,NULL,NULL,NULL,NULL,NULL,NULL
NULL,NULL,NULL,NULL,NULL,"free-sort","9","98894","0.0-7.0-0.0-0.0","1791041","B","2024/3/22 12:51:29","2024/3/22 12:57:39","8090",NULL,"MultiArrangementTask","Array","Array","Array","Main","B","12","105","建物","角砂糖","3","脆（もろ）い","四角い","白い","stimulus/images/main/n105_T.png",NULL,"stimulus/images/main/n105_F1.png","stimulus/images/main/n105_F2.png","stimulus/images/main/n105_F3.png","250","407","281","8","386","13","267","90","100","410","80","260","400","260","384","324","298","269","342","306",NULL
NULL,NULL,NULL,NULL,NULL,"free-sort","10","103122","0.0-7.0-1.0-0.0","1791041","B","2024/3/22 12:51:29","2024/3/22 12:57:39","4228",NULL,"MultiArrangementTask","Array","Array","Array","Main","B","45","95","礼儀","檻（おり）","2","堅苦しい","縛られる",,"stimulus/images/main/n95_T.png",NULL,"stimulus/images/main/n95_F1.png","stimulus/images/main/n95_F2.png",,"272","459","418","16","87","73","375","292",NULL,NULL,"80","260","400","260","120","271","382","272",NULL,NULL,NULL
NULL,NULL,NULL,NULL,NULL,"free-sort","11","114270","0.0-7.0-2.0-0.0","1791041","B","2024/3/22 12:51:29","2024/3/22 12:57:39","11147",NULL,"MultiArrangementTask","Array","Array","Array","Main","B","43","119","麦畑","海","2","波打つ","広い",,"stimulus/images/main/n119_T.png",NULL,"stimulus/images/main/n119_F1.png","stimulus/images/main/n119_F2.png",,"457","198","179","334","80","360","478","515",NULL,NULL,"80","260","400","260","259","266","340","295",NULL,NULL,NULL
NULL,NULL,NULL,NULL,NULL,"free-sort","12","121132","0.0-7.0-3.0-0.0","1791041","B","2024/3/22 12:51:29","2024/3/22 12:57:39","6862",NULL,"MultiArrangementTask","Array","Array","Array","Main","B","44","72","香水","花束","2","良い香りがする","華やかだ",,"stimulus/images/main/n72_T.png",NULL,"stimulus/images/main/n72_F1.png","stimulus/images/main/n72_F2.png",,"469","34","237","208","448","94","3","509",NULL,NULL,"80","260","400","260","245","252","294","276",NULL,NULL,NULL
NULL,NULL,NULL,NULL,NULL,"free-sort","13","127515","0.0-7.0-4.0-0.0","1791041","B","2024/3/22 12:51:29","2024/3/22 12:57:39","6383",NULL,"MultiArrangementTask","Array","Array","Array","Main","B","37","59","霧（きり）","ベール","2","白い","覆う",,"stimulus/images/main/n59_T.png",NULL,"stimulus/images/main/n59_F1.png","stimulus/images/main/n59_F2.png",,"179","36","389","309","355","188","352","486",NULL,NULL,"80","260","400","260","181","275","254","273",NULL,NULL,NULL
NULL,NULL,NULL,NULL,NULL,"free-sort","14","133619","0.0-7.0-5.0-0.0","1791041","B","2024/3/22 12:51:29","2024/3/22 12:57:39","6104",NULL,"MultiArrangementTask","Array","Array","Array","Main","B","40","117","唇（くちびる）","蛭（ひる）","2","気持ち悪い","分厚い",,"stimulus/images/main/n117_T.png",NULL,"stimulus/images/main/n117_F1.png","stimulus/images/main/n117_F2.png",,"158","382","226","110","175","51","260","82",NULL,NULL,"80","260","400","260","383","267","205","263",NULL,NULL,NULL
NULL,NULL,NULL,NULL,NULL,"free-sort","15","145017","0.0-7.0-6.0-0.0","1791041","B","2024/3/22 12:51:29","2024/3/22 12:57:39","11397",NULL,"MultiArrangementTask","Array","Array","Array","Main","B","5","63","時間","洪水","3","止められない","流れる","逆らえない","stimulus/images/main/n63_T.png",NULL,"stimulus/images/main/n63_F1.png","stimulus/images/main/n63_F2.png","stimulus/images/main/n63_F3.png","468","433","329","418","334","110","218","401","3","346","80","260","400","260","210","265","254","292","285","253",NULL
NULL,NULL,NULL,NULL,NULL,"free-sort","16","149362","0.0-7.0-7.0-0.0","1791041","B","2024/3/22 12:51:29","2024/3/22 12:57:39","4344",NULL,"MultiArrangementTask","Array","Array","Array","Main","B","17","83","煙突","石碑","1","まっすぐ立っている",,,"stimulus/images/main/n83_T.png",NULL,"stimulus/images/main/n83_F1.png",,,"150","333","324","212","149","308",NULL,NULL,NULL,NULL,"80","260","400","260","254","261",NULL,NULL,NULL,NULL,NULL
NULL,NULL,NULL,NULL,NULL,"free-sort","17","160457","0.0-7.0-8.0-0.0","1791041","B","2024/3/22 12:51:29","2024/3/22 12:57:39","11095",NULL,"MultiArrangementTask","Array","Array","Array","Main","B","11","48","雨雲","薄墨","3","灰色だ","暗い","黒い","stimulus/images/main/n48_T.png",NULL,"stimulus/images/main/n48_F1.png","stimulus/images/main/n48_F2.png","stimulus/images/main/n48_F3.png","230","210","184","345","34","420","132","145","88","147","80","260","400","260","298","303","198","256","329","266",NULL
NULL,NULL,NULL,NULL,NULL,"free-sort","18","165819","0.0-7.0-9.0-0.0","1791041","B","2024/3/22 12:51:29","2024/3/22 12:57:39","5362",NULL,"MultiArrangementTask","Array","Array","Array","Main","B","18","75","空","鏡","1","澄（す）んでいる",,,"stimulus/images/main/n75_T.png",NULL,"stimulus/images/main/n75_F1.png",,,"144","137","135","201","298","12",NULL,NULL,NULL,NULL,"80","260","400","260","320","270",NULL,NULL,NULL,NULL,NULL
NULL,NULL,NULL,NULL,NULL,"free-sort","19","171908","0.0-7.0-10.0-0.0","1791041","B","2024/3/22 12:51:29","2024/3/22 12:57:39","6088",NULL,"MultiArrangementTask","Array","Array","Array","Main","B","30","32","審判","天秤","1","公平だ",,,"stimulus/images/main/n32_T.png",NULL,"stimulus/images/main/n32_F1.png",,,"357","151","12","329","175","107",NULL,NULL,NULL,NULL,"80","260","400","260","283","259",NULL,NULL,NULL,NULL,NULL
NULL,NULL,NULL,NULL,NULL,"free-sort","20","178074","0.0-7.0-11.0-0.0","1791041","B","2024/3/22 12:51:29","2024/3/22 12:57:39","6166",NULL,"MultiArrangementTask","Array","Array","Array","Main","B","21","58","デモ","雪崩（なだれ）","1","止められない",,,"stimulus/images/main/n58_T.png",NULL,"stimulus/images/main/n58_F1.png",,,"435","226","384","487","140","59",NULL,NULL,NULL,NULL,"80","260","400","260","344","257",NULL,NULL,NULL,NULL,NULL
NULL,NULL,NULL,NULL,NULL,"free-sort","21","180839","0.0-7.0-12.0-0.0","1791041","B","2024/3/22 12:51:29","2024/3/22 12:57:39","2765",NULL,"MultiArrangementTask","Array","Array","Array","Main","B","26","52","仕事","牢獄（ろうごく）","1","つらい",,,"stimulus/images/main/n52_T.png",NULL,"stimulus/images/main/n52_F1.png",,,"35","415","387","276","360","2",NULL,NULL,NULL,NULL,"80","260","400","260","265","255",NULL,NULL,NULL,NULL,NULL
NULL,NULL,NULL,NULL,NULL,"free-sort","22","189612","0.0-7.0-13.0-0.0","1791041","B","2024/3/22 12:51:29","2024/3/22 12:57:39","8771",NULL,"MultiArrangementTask","Array","Array","Array","Main","B","15","74","子猫","王女","3","かわいい","大切にされている","わがままだ","stimulus/images/main/n74_T.png",NULL,"stimulus/images/main/n74_F1.png","stimulus/images/main/n74_F2.png","stimulus/images/main/n74_F3.png","311","196","6","314","449","177","151","370","207","502","80","260","400","260","201","258","272","296","298","229",NULL
NULL,NULL,NULL,NULL,NULL,"free-sort","23","195610","0.0-7.0-14.0-0.0","1791041","B","2024/3/22 12:51:29","2024/3/22 12:57:39","5997",NULL,"MultiArrangementTask","Array","Array","Array","Main","B","33","55","理論","建物","2","積み重ねる","組み立てる",,"stimulus/images/main/n55_T.png",NULL,"stimulus/images/main/n55_F1.png","stimulus/images/main/n55_F2.png",,"368","201","268","411","8","111","233","433",NULL,NULL,"80","260","400","260","182","285","299","240",NULL,NULL,NULL
NULL,NULL,NULL,NULL,NULL,"free-sort","24","201778","0.0-7.0-15.0-0.0","1791041","B","2024/3/22 12:51:29","2024/3/22 12:57:39","6168",NULL,"MultiArrangementTask","Array","Array","Array","Main","B","24","62","微風","吐息","1","優しい",,,"stimulus/images/main/n62_T.png",NULL,"stimulus/images/main/n62_F1.png",,,"346","34","237","35","322","314",NULL,NULL,NULL,NULL,"80","260","400","260","214","296",NULL,NULL,NULL,NULL,NULL
NULL,NULL,NULL,NULL,NULL,"free-sort","25","211450","0.0-7.0-16.0-0.0","1791041","B","2024/3/22 12:51:29","2024/3/22 12:57:39","9671",NULL,"MultiArrangementTask","Array","Array","Array","Main","B","13","12","衝撃","電気","3","一瞬の出来事だ","突然来る","ビリビリする","stimulus/images/main/n12_T.png",NULL,"stimulus/images/main/n12_F1.png","stimulus/images/main/n12_F2.png","stimulus/images/main/n12_F3.png","98","108","81","21","406","55","320","485","283","277","80","260","400","260","189","294","160","218","323","282",NULL
NULL,NULL,NULL,NULL,NULL,"free-sort","26","216804","0.0-7.0-17.0-0.0","1791041","B","2024/3/22 12:51:29","2024/3/22 12:57:39","5354",NULL,"MultiArrangementTask","Array","Array","Array","Main","B","31","112","雑巾","亀","2","臭い","汚い",,"stimulus/images/main/n112_T.png",NULL,"stimulus/images/main/n112_F1.png","stimulus/images/main/n112_F2.png",,"100","196","159","249","349","129","137","6",NULL,NULL,"80","260","400","260","189","286","184","218",NULL,NULL,NULL
NULL,NULL,NULL,NULL,NULL,"free-sort","27","220586","0.0-7.0-18.0-0.0","1791041","B","2024/3/22 12:51:29","2024/3/22 12:57:39","3782",NULL,"MultiArrangementTask","Array","Array","Array","Main","B","22","61","疑惑","腫瘍（しゅよう）","1","ふくれあがる",,,"stimulus/images/main/n61_T.png",NULL,"stimulus/images/main/n61_F1.png",,,"203","0","166","489","101","266",NULL,NULL,NULL,NULL,"80","260","400","260","336","281",NULL,NULL,NULL,NULL,NULL
NULL,NULL,NULL,NULL,NULL,"free-sort","28","228554","0.0-7.0-19.0-0.0","1791041","B","2024/3/22 12:51:29","2024/3/22 12:57:39","7967",NULL,"MultiArrangementTask","Array","Array","Array","Main","B","7","88","批判","メス","3","人を傷つける","鋭い","痛いところをつく","stimulus/images/main/n88_T.png",NULL,"stimulus/images/main/n88_F1.png","stimulus/images/main/n88_F2.png","stimulus/images/main/n88_F3.png","339","515","123","295","148","407","132","366","52","354","80","260","400","260","225","240","364","288","123","302",NULL
NULL,NULL,NULL,NULL,NULL,"free-sort","29","232970","0.0-7.0-20.0-0.0","1791041","B","2024/3/22 12:51:29","2024/3/22 12:57:39","4416",NULL,"MultiArrangementTask","Array","Array","Array","Main","B","39","99","眼","湖","2","美しい","澄（す）んでいる",,"stimulus/images/main/n99_T.png",NULL,"stimulus/images/main/n99_F1.png","stimulus/images/main/n99_F2.png",,"172","395","149","145","325","234","221","376",NULL,NULL,"80","260","400","260","279","233","290","305",NULL,NULL,NULL
NULL,NULL,NULL,NULL,NULL,"free-sort","30","242110","0.0-7.0-21.0-0.0","1791041","B","2024/3/22 12:51:29","2024/3/22 12:57:39","9139",NULL,"MultiArrangementTask","Array","Array","Array","Main","B","4","38","蝶","踊り子","3","美しい","舞う","華やかだ","stimulus/images/main/n38_T.png",NULL,"stimulus/images/main/n38_F1.png","stimulus/images/main/n38_F2.png","stimulus/images/main/n38_F3.png","367","362","397","357","445","124","331","466","418","145","80","260","400","260","219","254","337","232","250","293",NULL
NULL,NULL,NULL,NULL,NULL,"free-sort","31","249534","0.0-7.0-22.0-0.0","1791041","B","2024/3/22 12:51:29","2024/3/22 12:57:39","7424",NULL,"MultiArrangementTask","Array","Array","Array","Main","B","9","26","真珠","水滴","3","美しい","丸い","透き通っている","stimulus/images/main/n26_T.png",NULL,"stimulus/images/main/n26_F1.png","stimulus/images/main/n26_F2.png","stimulus/images/main/n26_F3.png","343","257","277","127","352","73","69","17","110","265","80","260","400","260","134","319","237","253","334","283",NULL
NULL,NULL,NULL,NULL,NULL,"free-sort","32","256748","0.0-7.0-23.0-0.0","1791041","B","2024/3/22 12:51:29","2024/3/22 12:57:39","7213",NULL,"MultiArrangementTask","Array","Array","Array","Main","B","35","73","運命","通り魔","2","予測できない","恐ろしい",,"stimulus/images/main/n73_T.png",NULL,"stimulus/images/main/n73_F1.png","stimulus/images/main/n73_F2.png",,"326","263","144","116","259","388","184","305",NULL,NULL,"80","260","400","260","260","217","356","270",NULL,NULL,NULL
NULL,NULL,NULL,NULL,NULL,"free-sort","33","262178","0.0-7.0-24.0-0.0","1791041","B","2024/3/22 12:51:29","2024/3/22 12:57:39","5430",NULL,"MultiArrangementTask","Array","Array","Array","Main","B","41","2","笑顔","花","2","美しい","明るい",,"stimulus/images/main/n2_T.png",NULL,"stimulus/images/main/n2_F1.png","stimulus/images/main/n2_F2.png",,"385","70","301","469","303","409","334","369",NULL,NULL,"80","260","400","260","275","243","172","273",NULL,NULL,NULL
NULL,NULL,NULL,NULL,NULL,"free-sort","34","268066","0.0-7.0-25.0-0.0","1791041","B","2024/3/22 12:51:29","2024/3/22 12:57:39","5887",NULL,"MultiArrangementTask","Array","Array","Array","Main","B","42","19","心臓","時計","2","一定のリズムを刻む","正確だ",,"stimulus/images/main/n19_T.png",NULL,"stimulus/images/main/n19_F1.png","stimulus/images/main/n19_F2.png",,"364","325","372","331","233","516","238","451",NULL,NULL,"80","260","400","260","292","309","300","268",NULL,NULL,NULL
NULL,NULL,NULL,NULL,NULL,"free-sort","35","271082","0.0-7.0-26.0-0.0","1791041","B","2024/3/22 12:51:29","2024/3/22 12:57:39","3016",NULL,"MultiArrangementTask","Array","Array","Array","Main","B","19","9","子供","天使","1","かわいい",,,"stimulus/images/main/n9_T.png",NULL,"stimulus/images/main/n9_F1.png",,,"452","99","273","125","119","413",NULL,NULL,NULL,NULL,"80","260","400","260","238","275",NULL,NULL,NULL,NULL,NULL
NULL,NULL,NULL,NULL,NULL,"free-sort","36","279066","0.0-7.0-27.0-0.0","1791041","B","2024/3/22 12:51:29","2024/3/22 12:57:39","7983",NULL,"MultiArrangementTask","Array","Array","Array","Main","B","6","14","暴動","嵐","3","激しい","人を巻き込む","突然起こる","stimulus/images/main/n14_T.png",NULL,"stimulus/images/main/n14_F1.png","stimulus/images/main/n14_F2.png","stimulus/images/main/n14_F3.png","277","40","295","369","398","375","408","123","420","415","80","260","400","260","233","248","160","303","305","280",NULL
NULL,NULL,NULL,NULL,NULL,"free-sort","37","281666","0.0-7.0-28.0-0.0","1791041","B","2024/3/22 12:51:29","2024/3/22 12:57:39","2599",NULL,"MultiArrangementTask","Array","Array","Array","Main","B","20","96","柿","ちょうちん","1","丸い",,,"stimulus/images/main/n96_T.png",NULL,"stimulus/images/main/n96_F1.png",,,"331","100","219","502","58","406",NULL,NULL,NULL,NULL,"80","260","400","260","247","272",NULL,NULL,NULL,NULL,NULL
NULL,NULL,NULL,NULL,NULL,"free-sort","38","284434","0.0-7.0-29.0-0.0","1791041","B","2024/3/22 12:51:29","2024/3/22 12:57:39","2767",NULL,"MultiArrangementTask","Array","Array","Array","Main","B","29","110","椿（つばき）","ひとだま","1","丸い",,,"stimulus/images/main/n110_T.png",NULL,"stimulus/images/main/n110_F1.png",,,"17","143","296","21","71","201",NULL,NULL,NULL,NULL,"80","260","400","260","257","263",NULL,NULL,NULL,NULL,NULL
NULL,NULL,NULL,NULL,NULL,"free-sort","39","293030","0.0-7.0-30.0-0.0","1791041","B","2024/3/22 12:51:29","2024/3/22 12:57:39","8595",NULL,"MultiArrangementTask","Array","Array","Array","Main","B","8","80","煙草","時限爆弾","3","寿命を縮める","危険だ","燃える","stimulus/images/main/n80_T.png",NULL,"stimulus/images/main/n80_F1.png","stimulus/images/main/n80_F2.png","stimulus/images/main/n80_F3.png","394","494","326","325","102","445","426","448","99","367","80","260","400","260","175","221","308","234","201","290",NULL
NULL,NULL,NULL,NULL,NULL,"free-sort","40","296050","0.0-7.0-31.0-0.0","1791041","B","2024/3/22 12:51:29","2024/3/22 12:57:39","3020",NULL,"MultiArrangementTask","Array","Array","Array","Main","B","25","77","山","王様","1","大きい",,,"stimulus/images/main/n77_T.png",NULL,"stimulus/images/main/n77_F1.png",,,"195","139","80","83","345","508",NULL,NULL,NULL,NULL,"80","260","400","260","149","295",NULL,NULL,NULL,NULL,NULL
NULL,NULL,NULL,NULL,NULL,"free-sort","41","303034","0.0-7.0-32.0-0.0","1791041","B","2024/3/22 12:51:29","2024/3/22 12:57:39","6984",NULL,"MultiArrangementTask","Array","Array","Array","Main","B","34","17","希望","灯火","2","消える","明るい",,"stimulus/images/main/n17_T.png",NULL,"stimulus/images/main/n17_F1.png","stimulus/images/main/n17_F2.png",,"215","516","59","64","39","378","55","13",NULL,NULL,"80","260","400","260","299","337","298","274",NULL,NULL,NULL
NULL,NULL,NULL,NULL,NULL,"free-sort","42","309914","0.0-7.0-33.0-0.0","1791041","B","2024/3/22 12:51:29","2024/3/22 12:57:39","6880",NULL,"MultiArrangementTask","Array","Array","Array","Main","B","3","39","研究","登山","3","険しい道のり","達成感がある","苦しい","stimulus/images/main/n39_T.png",NULL,"stimulus/images/main/n39_F1.png","stimulus/images/main/n39_F2.png","stimulus/images/main/n39_F3.png","324","14","230","472","167","160","16","347","388","321","80","260","400","260","280","244","244","311","245","287",NULL
NULL,NULL,NULL,NULL,NULL,"free-sort","43","312538","0.0-7.0-34.0-0.0","1791041","B","2024/3/22 12:51:29","2024/3/22 12:57:39","2623",NULL,"MultiArrangementTask","Array","Array","Array","Main","B","27","89","愛","季節","1","移り変わる",,,"stimulus/images/main/n89_T.png",NULL,"stimulus/images/main/n89_F1.png",,,"73","286","20","511","282","518",NULL,NULL,NULL,NULL,"80","260","400","260","292","275",NULL,NULL,NULL,NULL,NULL
NULL,NULL,NULL,NULL,NULL,"free-sort","44","315906","0.0-7.0-35.0-0.0","1791041","B","2024/3/22 12:51:29","2024/3/22 12:57:39","3368",NULL,"MultiArrangementTask","Array","Array","Array","Main","B","23","45","教育","階段","1","段階を踏んでいく",,,"stimulus/images/main/n45_T.png",NULL,"stimulus/images/main/n45_F1.png",,,"323","192","394","51","306","345",NULL,NULL,NULL,NULL,"80","260","400","260","212","273",NULL,NULL,NULL,NULL,NULL
NULL,NULL,NULL,NULL,NULL,"free-sort","45","322818","0.0-7.0-36.0-0.0","1791041","B","2024/3/22 12:51:29","2024/3/22 12:57:39","6911",NULL,"MultiArrangementTask","Array","Array","Array","Main","B","1","91","皮肉","短刀","3","人を傷つける","鋭い","心に刺さる","stimulus/images/main/n91_T.png",NULL,"stimulus/images/main/n91_F1.png","stimulus/images/main/n91_F2.png","stimulus/images/main/n91_F3.png","404","333","367","457","315","92","187","482","223","200","80","260","400","260","318","258","281","299","131","284",NULL
NULL,NULL,NULL,NULL,NULL,"free-sort","46","327572","0.0-7.0-37.0-0.0","1791041","B","2024/3/22 12:51:29","2024/3/22 12:57:39","4753",NULL,"MultiArrangementTask","Array","Array","Array","Main","B","36","33","沈黙","海底","2","静かだ","暗い",,"stimulus/images/main/n33_T.png",NULL,"stimulus/images/main/n33_F1.png","stimulus/images/main/n33_F2.png",,"22","498","11","89","364","123","356","150",NULL,NULL,"80","260","400","260","128","291","309","271",NULL,NULL,NULL
NULL,NULL,NULL,NULL,NULL,"free-sort","47","332980","0.0-7.0-38.0-0.0","1791041","B","2024/3/22 12:51:29","2024/3/22 12:57:39","5408",NULL,"MultiArrangementTask","Array","Array","Array","Main","B","14","86","学校","工場","3","人がたくさんいる","画一的だ","生産する","stimulus/images/main/n86_T.png",NULL,"stimulus/images/main/n86_F1.png","stimulus/images/main/n86_F2.png","stimulus/images/main/n86_F3.png","462","230","87","469","147","207","463","324","363","139","80","260","400","260","166","291","305","281","367","243",NULL
NULL,NULL,NULL,NULL,NULL,"free-sort","48","340320","0.0-7.0-39.0-0.0","1791041","B","2024/3/22 12:51:29","2024/3/22 12:57:39","7340",NULL,"MultiArrangementTask","Array","Array","Array","Main","B","32","20","不安","濃霧（のうむ）","2","先が見えない","晴れない",,"stimulus/images/main/n20_T.png",NULL,"stimulus/images/main/n20_F1.png","stimulus/images/main/n20_F2.png",,"228","462","319","143","37","369","81","4",NULL,NULL,"80","260","400","260","242","303","249","276",NULL,NULL,NULL
NULL,NULL,NULL,NULL,NULL,"free-sort","49","347274","0.0-7.0-40.0-0.0","1791041","B","2024/3/22 12:51:29","2024/3/22 12:57:39","6953",NULL,"MultiArrangementTask","Array","Array","Array","Main","B","38","5","激怒","噴火","2","突然起こる","勢いが激しい",,"stimulus/images/main/n5_T.png",NULL,"stimulus/images/main/n5_F1.png","stimulus/images/main/n5_F2.png",,"202","88","324","266","343","2","46","166",NULL,NULL,"80","260","400","260","274","232","187","293",NULL,NULL,NULL
NULL,NULL,NULL,NULL,NULL,"free-sort","50","354618","0.0-7.0-41.0-0.0","1791041","B","2024/3/22 12:51:29","2024/3/22 12:57:39","7343",NULL,"MultiArrangementTask","Array","Array","Array","Main","B","10","4","つらら","水晶細工","3","美しい","透明だ","繊細だ","stimulus/images/main/n4_T.png",NULL,"stimulus/images/main/n4_F1.png","stimulus/images/main/n4_F2.png","stimulus/images/main/n4_F3.png","95","342","192","453","344","466","338","429","183","189","80","260","400","260","245","285","271","299","301","266",NULL
NULL,NULL,NULL,NULL,NULL,"free-sort","51","362386","0.0-7.0-42.0-0.0","1791041","B","2024/3/22 12:51:29","2024/3/22 12:57:39","7768",NULL,"MultiArrangementTask","Array","Array","Array","Main","B","2","81","夕日","銅貨","3","丸い","輝いている","赤い","stimulus/images/main/n81_T.png",NULL,"stimulus/images/main/n81_F1.png","stimulus/images/main/n81_F2.png","stimulus/images/main/n81_F3.png","109","10","5","361","259","50","378","101","140","394","80","260","400","260","245","261","171","259","143","307",NULL
NULL,NULL,NULL,NULL,NULL,"free-sort","52","365632","0.0-7.0-43.0-0.0","1791041","B","2024/3/22 12:51:29","2024/3/22 12:57:39","3246",NULL,"MultiArrangementTask","Array","Array","Array","Main","B","28","85","利息","年貢","1","払わなければならない",,,"stimulus/images/main/n85_T.png",NULL,"stimulus/images/main/n85_F1.png",,,"347","443","81","2","351","30",NULL,NULL,NULL,NULL,"80","260","400","260","244","273",NULL,NULL,NULL,NULL,NULL
NULL,NULL,NULL,NULL,NULL,"free-sort","53","368842","0.0-7.0-44.0-0.0","1791041","B","2024/3/22 12:51:29","2024/3/22 12:57:39","3209",NULL,"MultiArrangementTask","Array","Array","Array","Main","B","16","16","楽譜","暗号","1","わからない",,,"stimulus/images/main/n16_T.png",NULL,"stimulus/images/main/n16_F1.png",,,"378","65","89","509","198","82",NULL,NULL,NULL,NULL,"80","260","400","260","324","255",NULL,NULL,NULL,NULL,NULL
NULL,NULL,NULL,NULL,NULL,"html-keyboard-response","54","370302","0.0-8.0","1791041","B","2024/3/22 12:51:29","2024/3/22 12:57:39","1459"," ","debrief",NULL,NULL,NULL,NULL,NULL,NULL,NULL,NULL,NULL,NULL,NULL,NULL,NULL,NULL,NULL,NULL,NULL,NULL,NULL,NULL,NULL,NULL,NULL,NULL,NULL,NULL,NULL,NULL,NULL,NULL,NULL,NULL,NULL,NULL,NULL,NULL,NULL,NULL,"<p style='text-algin:left'>これで実験は終了です。お疲れ様でした。</p><p style='text-algin:left'>スペースキーを押して次の実験に遷移するのをお待ちください。</p>"
"1",,"Array","Array","Array","preload","0","5","0.0-0.0","1181538","B","2024/3/22 12:53:12","2024/3/22 12:59:03",NULL,NULL,NULL,NULL,NULL,NULL,NULL,NULL,NULL,NULL,NULL,NULL,NULL,NULL,NULL,NULL,NULL,NULL,NULL,NULL,NULL,NULL,NULL,NULL,NULL,NULL,NULL,NULL,NULL,NULL,NULL,NULL,NULL,NULL,NULL,NULL,NULL,NULL,NULL,NULL,NULL,NULL
